dTime;Accel_X;Accel_Y;Accel_Z;Gyro_X;Gyro_Y;Gyro_Z;Mag_X;Mag_Y;Mag_Z;q1;q2;q3;q4
[s];[m/s^2];[m/s^2];[m/s^2];[rad/s];[rad/s];[rad/s];[uT];[uT];[uT];[-];[-];[-];[-]

6.210001;-0.062500;-0.160156;9.835938;0.000000;0.000000;0.001953;-3.625000;18.625000;-40.125000;-0.007507;0.004028;0.000000;0.999939
6.211000;-0.062500;-0.160156;9.835938;0.000000;0.000000;0.001953;-3.625000;18.625000;-40.125000;-0.007507;0.004028;0.000000;0.999939
6.219999;-0.101563;-0.160156;9.871094;0.000000;0.000000;0.001953;-2.875000;18.625000;-39.312500;-0.007507;0.004028;0.000000;0.999939
6.221998;-0.101563;-0.160156;9.871094;0.000000;0.000000;0.001953;-2.875000;18.625000;-39.312500;-0.007507;0.004028;0.000000;0.999939
6.222998;-0.101563;-0.160156;9.871094;0.000000;0.000000;0.001953;-2.875000;18.625000;-39.312500;-0.007507;0.004028;0.000000;0.999939
6.224001;-0.101563;-0.160156;9.871094;0.000000;0.000000;0.001953;-2.875000;18.625000;-39.312500;-0.007507;0.004028;0.000000;0.999939
6.226000;-0.101563;-0.160156;9.871094;0.000000;0.000000;0.001953;-2.875000;18.625000;-39.312500;-0.007507;0.004028;0.000000;0.999939
6.226999;-0.101563;-0.160156;9.871094;0.000000;0.000000;0.001953;-2.875000;18.625000;-39.312500;-0.007507;0.004028;0.000000;0.999939
6.227999;-0.101563;-0.160156;9.871094;0.000000;0.000000;0.001953;-2.875000;18.625000;-39.312500;-0.007507;0.004028;0.000000;0.999939
6.252001;-0.062500;-0.160156;9.871094;0.000000;-0.001953;0.000000;-2.875000;18.625000;-39.312500;-0.007507;0.004028;0.000000;0.999939
6.264997;-0.062500;-0.160156;9.871094;0.000000;-0.001953;0.000000;-3.250000;20.062500;-40.562500;-0.007507;0.004028;0.000000;0.999939
6.284998;-0.062500;-0.121094;9.835938;0.000000;-0.001953;0.000000;-3.250000;20.062500;-40.562500;-0.007507;0.004028;0.000000;0.999939
6.316000;-0.101563;-0.121094;9.871094;-0.001953;0.000000;0.000000;-3.625000;19.000000;-39.312500;-0.007568;0.004028;0.000000;0.999939
6.332998;-0.101563;-0.121094;9.871094;-0.001953;0.000000;0.000000;-3.625000;19.000000;-39.312500;-0.007568;0.004028;0.000000;0.999939
6.365999;-0.062500;-0.160156;9.871094;-0.001953;0.001953;-0.001953;-3.250000;20.062500;-39.312500;-0.007568;0.004028;0.000000;0.999939
6.372999;-0.062500;-0.160156;9.871094;-0.001953;0.001953;-0.001953;-3.250000;20.062500;-39.312500;-0.007568;0.004028;0.000000;0.999939
6.402998;-0.062500;-0.160156;9.871094;0.000000;0.000000;0.000000;-3.250000;20.062500;-39.312500;-0.007568;0.003967;-0.000061;0.999939
6.418001;-0.101563;-0.160156;9.871094;0.000000;0.000000;0.000000;-4.000000;19.000000;-39.750000;-0.007568;0.003967;-0.000061;0.999939
6.432001;-0.101563;-0.160156;9.871094;0.000000;0.000000;0.000000;-4.000000;19.000000;-39.750000;-0.007568;0.003967;-0.000061;0.999939
6.468000;-0.062500;-0.160156;9.871094;0.000000;-0.001953;0.001953;-3.625000;18.625000;-40.125000;-0.007568;0.003967;0.000000;0.999939
6.482000;-0.062500;-0.160156;9.871094;0.000000;-0.001953;0.001953;-3.625000;18.625000;-40.125000;-0.007568;0.003967;0.000000;0.999939
6.516001;-0.062500;-0.160156;9.871094;0.003906;0.007813;0.001953;-2.500000;18.625000;-38.500000;-0.007568;0.003967;0.000000;0.999939
6.522001;-0.062500;-0.160156;9.871094;0.003906;0.007813;0.001953;-2.500000;18.625000;-38.500000;-0.007568;0.003967;0.000000;0.999939
6.552999;-0.101563;-0.121094;9.871094;0.000000;0.001953;0.000000;-2.500000;18.625000;-38.500000;-0.007629;0.003906;0.000000;0.999939
6.567999;-0.062500;-0.121094;9.871094;0.000000;0.001953;0.000000;-2.875000;18.625000;-38.500000;-0.007629;0.003906;0.000000;0.999939
6.582998;-0.062500;-0.121094;9.871094;0.000000;0.001953;0.000000;-2.875000;18.625000;-38.500000;-0.007629;0.003906;0.000000;0.999939
6.615999;-0.062500;-0.121094;9.871094;0.000000;0.000000;0.001953;-2.875000;19.312500;-40.125000;-0.007629;0.003967;0.000000;0.999939
6.622999;-0.062500;-0.121094;9.871094;0.000000;0.000000;0.001953;-2.875000;19.312500;-40.125000;-0.007629;0.003967;0.000000;0.999939
6.652998;-0.062500;-0.160156;9.871094;0.005859;0.000000;-0.001953;-2.875000;19.312500;-40.125000;-0.007690;0.003967;0.000000;0.999939
6.677000;-0.101563;-0.121094;9.871094;0.005859;0.000000;-0.001953;-2.500000;19.312500;-39.375000;-0.007690;0.003967;0.000000;0.999939
6.703001;-0.062500;-0.121094;9.871094;0.000000;0.000000;0.001953;-2.500000;19.312500;-39.375000;-0.007690;0.003906;0.000061;0.999939
6.714998;-0.062500;-0.121094;9.871094;0.000000;0.000000;0.001953;-2.500000;17.875000;-38.562500;-0.007690;0.003906;0.000061;0.999939
6.738001;-0.062500;-0.121094;9.871094;0.000000;0.000000;0.001953;-2.500000;17.875000;-38.562500;-0.007690;0.003906;0.000061;0.999939
6.760000;-0.101563;-0.121094;9.871094;0.000000;0.001953;-0.001953;-2.500000;17.875000;-38.562500;-0.007629;0.003967;0.000061;0.999939
6.776999;-0.101563;-0.121094;9.871094;0.000000;0.001953;-0.001953;-3.250000;17.875000;-39.750000;-0.007629;0.003967;0.000061;0.999939
6.800001;-0.062500;-0.121094;9.871094;-0.001953;-0.003906;0.001953;-3.250000;17.875000;-39.750000;-0.007629;0.003967;0.000061;0.999939
6.819998;-0.062500;-0.121094;9.871094;-0.001953;-0.003906;0.001953;-2.875000;18.250000;-39.750000;-0.007629;0.003967;0.000061;0.999939
6.842001;-0.062500;-0.121094;9.871094;-0.001953;-0.003906;0.001953;-2.875000;18.250000;-39.750000;-0.007629;0.003967;0.000061;0.999939
6.875998;-0.062500;-0.121094;9.871094;0.001953;0.001953;0.000000;-2.500000;19.312500;-40.125000;-0.007629;0.003967;0.000061;0.999939
6.885000;-0.101563;-0.121094;9.835938;0.001953;0.001953;0.000000;-2.500000;19.312500;-40.125000;-0.007629;0.003967;0.000061;0.999939
6.911001;-0.062500;-0.121094;9.871094;0.000000;-0.001953;-0.001953;-2.500000;19.312500;-40.125000;-0.007568;0.003906;0.000061;0.999939
6.927000;-0.062500;-0.121094;9.871094;0.000000;-0.001953;-0.001953;-2.500000;20.062500;-40.125000;-0.007568;0.003906;0.000061;0.999939
6.950998;-0.101563;-0.160156;9.871094;-0.003906;0.000000;0.000000;-2.500000;20.062500;-40.125000;-0.007507;0.003906;0.000061;0.999939
6.962000;-0.101563;-0.160156;9.871094;-0.003906;0.000000;0.000000;-2.500000;20.062500;-40.125000;-0.007507;0.003906;0.000061;0.999939
6.990000;-0.062500;-0.121094;9.871094;-0.003906;0.000000;0.000000;-3.625000;19.000000;-39.750000;-0.007507;0.003906;0.000061;0.999939
7.025000;-0.062500;-0.160156;9.871094;0.001953;0.000000;0.000000;-3.250000;17.875000;-40.125000;-0.007446;0.003906;0.000061;0.999939
7.034998;-0.062500;-0.160156;9.871094;0.001953;0.000000;0.000000;-3.250000;17.875000;-40.125000;-0.007446;0.003906;0.000061;0.999939
7.057001;-0.062500;-0.160156;9.871094;0.000000;0.000000;-0.003906;-3.250000;17.875000;-40.125000;-0.007446;0.003906;0.000061;0.999939
7.080000;-0.062500;-0.160156;9.871094;0.000000;0.000000;-0.003906;-2.187500;19.312500;-39.375000;-0.007446;0.003906;0.000061;0.999939
7.092001;-0.062500;-0.160156;9.871094;0.000000;0.000000;-0.003906;-2.187500;19.312500;-39.375000;-0.007446;0.003906;0.000061;0.999939
7.128000;-0.062500;-0.160156;9.871094;0.000000;0.000000;0.000000;-2.500000;19.312500;-39.750000;-0.007446;0.003906;0.000000;0.999939
7.131998;-0.062500;-0.160156;9.871094;0.000000;0.000000;0.000000;-2.500000;19.312500;-39.750000;-0.007446;0.003906;0.000000;0.999939
7.163000;-0.062500;-0.160156;9.871094;-0.001953;-0.001953;0.000000;-2.500000;19.312500;-39.750000;-0.007446;0.003845;0.000000;0.999939
7.175001;-0.062500;-0.160156;9.871094;-0.001953;-0.001953;0.000000;-3.625000;19.000000;-39.750000;-0.007446;0.003845;0.000000;0.999939
7.212000;-0.101563;-0.160156;9.871094;0.000000;0.000000;0.001953;-3.625000;19.000000;-39.750000;-0.007385;0.003845;0.000000;0.999939
7.227999;-0.062500;-0.160156;9.871094;0.000000;0.000000;0.001953;-3.250000;18.250000;-39.312500;-0.007385;0.003845;0.000000;0.999939
7.242998;-0.062500;-0.160156;9.871094;0.000000;0.000000;0.001953;-3.250000;18.250000;-39.312500;-0.007385;0.003845;0.000000;0.999939
7.275000;-0.062500;-0.160156;9.835938;-0.001953;0.001953;-0.001953;-2.500000;19.312500;-40.125000;-0.007446;0.003784;0.000061;0.999939
7.282999;-0.062500;-0.160156;9.835938;-0.001953;0.001953;-0.001953;-2.500000;19.312500;-40.125000;-0.007446;0.003784;0.000061;0.999939
7.312998;-0.062500;-0.160156;9.835938;0.000000;0.000000;0.000000;-2.500000;19.312500;-40.125000;-0.007507;0.003784;0.000000;0.999939
7.328001;-0.062500;-0.160156;9.871094;0.000000;0.000000;0.000000;-1.812500;20.062500;-38.937500;-0.007507;0.003784;0.000000;0.999939
7.342001;-0.062500;-0.160156;9.871094;0.000000;0.000000;0.000000;-1.812500;20.062500;-38.937500;-0.007507;0.003784;0.000000;0.999939
7.387999;-0.101563;-0.160156;9.871094;0.001953;0.000000;-0.001953;-2.187500;19.000000;-39.312500;-0.007507;0.003784;0.000061;0.999939
7.392000;-0.101563;-0.160156;9.871094;0.001953;0.000000;-0.001953;-2.187500;19.000000;-39.312500;-0.007507;0.003784;0.000061;0.999939
7.425001;-0.101563;-0.160156;9.871094;0.001953;0.000000;0.001953;-3.250000;18.250000;-40.125000;-0.007507;0.003784;0.000061;0.999939
7.432001;-0.101563;-0.160156;9.871094;0.001953;0.000000;0.001953;-3.250000;18.250000;-40.125000;-0.007507;0.003784;0.000061;0.999939
7.462000;-0.062500;-0.160156;9.871094;0.001953;0.001953;0.001953;-3.250000;18.250000;-40.125000;-0.007507;0.003723;0.000061;0.999939
7.476999;-0.101563;-0.121094;9.871094;0.001953;0.001953;0.001953;-1.812500;19.687500;-39.375000;-0.007507;0.003723;0.000061;0.999939
7.492998;-0.101563;-0.121094;9.871094;0.001953;0.001953;0.001953;-1.812500;19.687500;-39.375000;-0.007507;0.003723;0.000061;0.999939
7.525999;-0.062500;-0.121094;9.871094;-0.001953;0.000000;0.001953;-3.625000;19.000000;-40.937500;-0.007507;0.003723;0.000061;0.999939
7.532999;-0.062500;-0.121094;9.871094;-0.001953;0.000000;0.001953;-3.625000;19.000000;-40.937500;-0.007507;0.003723;0.000061;0.999939
7.579000;-0.062500;-0.121094;9.871094;0.000000;0.000000;0.000000;-2.500000;20.437500;-39.375000;-0.007568;0.003723;0.000061;0.999939
7.582998;-0.062500;-0.121094;9.871094;0.000000;0.000000;0.000000;-2.500000;20.437500;-39.375000;-0.007568;0.003723;0.000061;0.999939
7.613001;-0.101563;-0.160156;9.871094;0.000000;0.003906;-0.001953;-2.500000;20.437500;-39.375000;-0.007507;0.003784;0.000061;0.999939
7.624998;-0.101563;-0.160156;9.871094;0.000000;0.003906;-0.001953;-3.250000;18.625000;-40.125000;-0.007507;0.003784;0.000061;0.999939
7.652998;-0.062500;-0.160156;9.871094;-0.005859;0.000000;0.000000;-3.250000;18.625000;-40.125000;-0.007507;0.003784;0.000061;0.999939
7.668001;-0.062500;-0.160156;9.871094;-0.005859;0.000000;0.000000;-2.500000;18.625000;-38.937500;-0.007507;0.003784;0.000061;0.999939
7.682001;-0.062500;-0.160156;9.871094;-0.005859;0.000000;0.000000;-2.500000;18.625000;-38.937500;-0.007507;0.003784;0.000061;0.999939
7.712000;-0.101563;-0.160156;9.835938;-0.001953;0.000000;0.000000;-2.500000;18.625000;-38.937500;-0.007507;0.003784;0.000061;0.999939
7.740000;-0.062500;-0.160156;9.871094;-0.001953;0.000000;0.000000;-1.812500;18.625000;-40.562500;-0.007507;0.003784;0.000061;0.999939
7.760000;-0.062500;-0.160156;9.871094;0.000000;0.000000;0.000000;-1.812500;18.625000;-40.562500;-0.007507;0.003784;0.000061;0.999939
7.775000;-0.062500;-0.160156;9.871094;0.000000;0.000000;0.000000;-2.875000;17.500000;-40.187500;-0.007507;0.003784;0.000061;0.999939
7.802999;-0.062500;-0.121094;9.871094;0.000000;0.001953;0.001953;-2.875000;17.500000;-40.187500;-0.007507;0.003845;0.000061;0.999939
7.811998;-0.062500;-0.121094;9.871094;0.000000;0.001953;0.001953;-2.875000;17.500000;-40.187500;-0.007507;0.003845;0.000061;0.999939
7.839998;-0.101563;-0.121094;9.871094;0.000000;0.001953;0.001953;-2.875000;18.625000;-39.750000;-0.007507;0.003845;0.000061;0.999939
7.859999;-0.062500;-0.160156;9.871094;0.007813;0.003906;0.000000;-2.875000;18.625000;-39.750000;-0.007507;0.003845;0.000122;0.999939
7.875998;-0.062500;-0.160156;9.871094;0.007813;0.003906;0.000000;-3.625000;18.625000;-40.187500;-0.007507;0.003845;0.000122;0.999939
7.900999;-0.062500;-0.160156;9.871094;-0.001953;0.000000;0.001953;-3.625000;18.625000;-40.187500;-0.007568;0.003906;0.000122;0.999939
7.929998;-0.101563;-0.121094;9.871094;-0.001953;0.000000;0.001953;-2.875000;19.312500;-38.937500;-0.007568;0.003906;0.000122;0.999939
7.950998;-0.062500;-0.160156;9.871094;0.000000;-0.001953;0.001953;-2.875000;19.312500;-38.937500;-0.007568;0.003845;0.000122;0.999939
7.962000;-0.062500;-0.160156;9.871094;0.000000;-0.001953;0.001953;-2.875000;19.312500;-38.937500;-0.007568;0.003845;0.000122;0.999939
7.990000;-0.062500;-0.160156;9.835938;0.000000;-0.001953;0.001953;-2.187500;19.312500;-40.187500;-0.007568;0.003845;0.000122;0.999939
8.009998;-0.062500;-0.160156;9.871094;-0.003906;-0.001953;0.000000;-2.187500;19.312500;-40.187500;-0.007568;0.003845;0.000122;0.999939
8.027996;-0.062500;-0.160156;9.871094;-0.003906;-0.001953;0.000000;-2.500000;20.437500;-39.750000;-0.007568;0.003845;0.000122;0.999939
8.049999;-0.062500;-0.160156;9.835938;0.001953;0.000000;0.001953;-2.500000;20.437500;-39.750000;-0.007568;0.003845;0.000061;0.999939
8.061996;-0.062500;-0.160156;9.835938;0.001953;0.000000;0.001953;-2.500000;20.437500;-39.750000;-0.007568;0.003845;0.000061;0.999939
8.107998;-0.062500;-0.160156;9.871094;0.001953;0.000000;-0.001953;-4.000000;19.312500;-39.375000;-0.007568;0.003784;0.000061;0.999939
8.112999;-0.062500;-0.160156;9.871094;0.001953;0.000000;-0.001953;-4.000000;19.312500;-39.375000;-0.007568;0.003784;0.000061;0.999939
8.139996;-0.101563;-0.160156;9.871094;0.001953;0.000000;-0.001953;-3.625000;19.312500;-39.750000;-0.007568;0.003784;0.000061;0.999939
8.157997;-0.101563;-0.160156;9.871094;0.003906;0.000000;0.001953;-3.625000;19.312500;-39.750000;-0.007568;0.003784;0.000061;0.999939
8.179996;-0.062500;-0.160156;9.871094;0.003906;0.000000;0.001953;-2.875000;18.625000;-39.750000;-0.007568;0.003784;0.000061;0.999939
8.191998;-0.062500;-0.160156;9.871094;0.003906;0.000000;0.001953;-2.875000;18.625000;-39.750000;-0.007568;0.003784;0.000061;0.999939
8.224998;-0.101563;-0.121094;9.871094;-0.003906;0.001953;0.001953;-3.250000;17.500000;-39.375000;-0.007629;0.003784;0.000122;0.999939
8.234997;-0.062500;-0.121094;9.871094;-0.003906;0.001953;0.001953;-3.250000;17.500000;-39.375000;-0.007629;0.003784;0.000122;0.999939
8.275997;-0.062500;-0.160156;9.871094;0.003906;0.001953;0.001953;-1.812500;19.312500;-40.125000;-0.007629;0.003784;0.000122;0.999939
8.282997;-0.062500;-0.160156;9.871094;0.003906;0.001953;0.001953;-1.812500;19.312500;-40.125000;-0.007629;0.003784;0.000122;0.999939
8.312996;-0.101563;-0.160156;9.871094;0.003906;0.000000;0.000000;-1.812500;19.312500;-40.125000;-0.007568;0.003784;0.000122;0.999939
8.327999;-0.101563;-0.160156;9.871094;0.003906;0.000000;0.000000;-2.500000;17.875000;-38.937500;-0.007568;0.003784;0.000122;0.999939
8.341999;-0.101563;-0.160156;9.871094;0.003906;0.000000;0.000000;-2.500000;17.875000;-38.937500;-0.007568;0.003784;0.000122;0.999939
8.375996;-0.062500;-0.160156;9.871094;0.000000;0.000000;-0.003906;-2.875000;19.000000;-39.750000;-0.007629;0.003784;0.000061;0.999939
8.384998;-0.062500;-0.160156;9.871094;0.000000;0.000000;-0.003906;-2.875000;19.000000;-39.750000;-0.007629;0.003784;0.000061;0.999939
8.409996;-0.062500;-0.160156;9.871094;0.000000;0.000000;-0.001953;-2.875000;19.000000;-39.750000;-0.007629;0.003784;0.000061;0.999939
8.426998;-0.062500;-0.160156;9.871094;0.000000;0.000000;-0.001953;-3.625000;19.000000;-39.750000;-0.007629;0.003784;0.000061;0.999939
8.461998;-0.101563;-0.121094;9.871094;0.001953;0.000000;0.001953;-3.625000;19.000000;-39.750000;-0.007629;0.003784;0.000061;0.999939
8.474998;-0.101563;-0.121094;9.871094;0.001953;0.000000;0.001953;-2.875000;18.625000;-40.562500;-0.007629;0.003784;0.000061;0.999939
8.494999;-0.101563;-0.121094;9.835938;0.001953;0.000000;0.001953;-2.875000;18.625000;-40.562500;-0.007629;0.003784;0.000061;0.999939
8.525997;-0.062500;-0.121094;9.871094;-0.001953;0.000000;0.000000;-3.625000;19.000000;-39.750000;-0.007629;0.003784;0.000122;0.999939
8.532997;-0.062500;-0.121094;9.871094;-0.001953;0.000000;0.000000;-3.625000;19.000000;-39.750000;-0.007629;0.003784;0.000122;0.999939
8.562996;-0.101563;-0.160156;9.871094;0.000000;0.000000;0.000000;-3.625000;19.000000;-39.750000;-0.007690;0.003784;0.000061;0.999939
8.577999;-0.062500;-0.121094;9.835938;0.000000;0.000000;0.000000;-1.812500;19.000000;-41.000000;-0.007690;0.003784;0.000061;0.999939
8.591999;-0.062500;-0.121094;9.835938;0.000000;0.000000;0.000000;-1.812500;19.000000;-41.000000;-0.007690;0.003784;0.000061;0.999939
8.625996;-0.062500;-0.160156;9.871094;-0.003906;-0.001953;0.001953;-2.875000;19.000000;-40.187500;-0.007629;0.003845;0.000061;0.999939
8.646999;-0.062500;-0.160156;9.835938;-0.003906;-0.001953;0.001953;-2.875000;19.000000;-40.187500;-0.007629;0.003845;0.000061;0.999939
8.672997;-0.062500;-0.121094;9.871094;-0.001953;0.001953;0.000000;-4.000000;19.000000;-39.375000;-0.007629;0.003845;0.000061;0.999939
8.681999;-0.062500;-0.121094;9.871094;-0.001953;0.001953;0.000000;-4.000000;19.000000;-39.375000;-0.007629;0.003845;0.000061;0.999939
8.711998;-0.062500;-0.121094;9.871094;-0.001953;-0.001953;0.000000;-4.000000;19.000000;-39.375000;-0.007629;0.003845;0.000061;0.999939
8.724998;-0.062500;-0.121094;9.871094;-0.001953;-0.001953;0.000000;-2.500000;17.875000;-40.562500;-0.007629;0.003845;0.000061;0.999939
8.752998;-0.062500;-0.160156;9.871094;0.000000;0.000000;0.000000;-2.500000;17.875000;-40.562500;-0.007690;0.003845;0.000061;0.999939
8.764996;-0.062500;-0.121094;9.871094;0.000000;0.000000;0.000000;-2.500000;17.875000;-40.562500;-0.007690;0.003845;0.000061;0.999939
8.804996;-0.062500;-0.160156;9.871094;0.001953;0.001953;0.000000;-2.500000;19.687500;-39.375000;-0.007690;0.003784;0.000061;0.999939
8.811996;-0.062500;-0.160156;9.871094;0.001953;0.001953;0.000000;-2.500000;19.687500;-39.375000;-0.007690;0.003784;0.000061;0.999939
8.838997;-0.062500;-0.121094;9.871094;0.001953;0.001953;0.000000;-2.875000;19.000000;-39.375000;-0.007690;0.003784;0.000061;0.999939
8.860996;-0.062500;-0.160156;9.871094;-0.001953;-0.001953;-0.001953;-2.875000;19.000000;-39.375000;-0.007690;0.003784;0.000061;0.999939
8.874996;-0.062500;-0.160156;9.871094;-0.001953;-0.001953;-0.001953;-2.187500;18.625000;-38.562500;-0.007690;0.003784;0.000061;0.999939
8.902996;-0.062500;-0.160156;9.871094;0.000000;-0.001953;0.000000;-2.187500;18.625000;-38.562500;-0.007690;0.003784;0.000061;0.999939
8.912998;-0.062500;-0.160156;9.871094;0.000000;-0.001953;0.000000;-2.187500;18.625000;-38.562500;-0.007690;0.003784;0.000061;0.999939
8.939999;-0.062500;-0.160156;9.871094;0.000000;-0.001953;0.000000;-3.625000;19.312500;-41.375000;-0.007690;0.003784;0.000061;0.999939
8.972996;-0.101563;-0.160156;9.871094;-0.001953;-0.001953;0.001953;-3.250000;18.625000;-40.187500;-0.007690;0.003784;0.000061;0.999939
8.987999;-0.101563;-0.160156;9.871094;-0.001953;-0.001953;0.001953;-3.250000;18.625000;-40.187500;-0.007690;0.003784;0.000061;0.999939
9.006996;-0.101563;-0.160156;9.871094;0.000000;0.000000;0.000000;-3.250000;18.625000;-40.187500;-0.007629;0.003784;0.000061;0.999939
9.029999;-0.062500;-0.160156;9.871094;0.000000;0.000000;0.000000;-3.250000;18.625000;-41.000000;-0.007629;0.003784;0.000061;0.999939
9.044998;-0.062500;-0.160156;9.871094;0.000000;0.000000;0.000000;-3.250000;18.625000;-41.000000;-0.007629;0.003784;0.000061;0.999939
9.069996;-0.062500;-0.160156;9.871094;0.003906;0.000000;-0.001953;-4.000000;19.312500;-39.375000;-0.007629;0.003784;0.000061;0.999939
9.084999;-0.101563;-0.160156;9.871094;0.003906;0.000000;-0.001953;-4.000000;19.312500;-39.375000;-0.007629;0.003784;0.000061;0.999939
9.109997;-0.101563;-0.160156;9.871094;0.000000;0.000000;0.001953;-4.000000;19.312500;-39.375000;-0.007568;0.003784;0.000061;0.999939
9.136997;-0.101563;-0.160156;9.871094;0.000000;0.000000;0.001953;-3.250000;18.625000;-39.750000;-0.007568;0.003784;0.000061;0.999939
9.160999;-0.062500;-0.160156;9.871094;-0.001953;0.000000;0.000000;-3.250000;18.625000;-39.750000;-0.007629;0.003784;0.000061;0.999939
9.179996;-0.062500;-0.160156;9.871094;-0.001953;0.000000;0.000000;-2.187500;19.000000;-40.187500;-0.007629;0.003784;0.000061;0.999939
9.191998;-0.062500;-0.160156;9.871094;-0.001953;0.000000;0.000000;-2.187500;19.000000;-40.187500;-0.007629;0.003784;0.000061;0.999939
9.224998;-0.101563;-0.160156;9.871094;0.005859;0.000000;0.001953;-2.500000;18.625000;-38.562500;-0.007690;0.003784;0.000122;0.999939
9.234997;-0.062500;-0.160156;9.871094;0.005859;0.000000;0.001953;-2.500000;18.625000;-38.562500;-0.007690;0.003784;0.000122;0.999939
9.256996;-0.062500;-0.160156;9.871094;-0.001953;0.000000;-0.001953;-2.500000;18.625000;-38.562500;-0.007690;0.003845;0.000122;0.999939
9.279999;-0.062500;-0.160156;9.871094;-0.001953;0.000000;-0.001953;-2.875000;18.250000;-39.750000;-0.007690;0.003845;0.000122;0.999939
9.292999;-0.062500;-0.160156;9.871094;-0.001953;0.000000;-0.001953;-2.875000;18.250000;-39.750000;-0.007690;0.003845;0.000122;0.999939
9.337997;-0.101563;-0.121094;9.871094;0.001953;0.003906;0.001953;-4.000000;18.625000;-39.375000;-0.007751;0.003845;0.000122;0.999939
9.341999;-0.101563;-0.121094;9.871094;0.001953;0.003906;0.001953;-4.000000;18.625000;-39.375000;-0.007751;0.003845;0.000122;0.999939
9.375996;-0.062500;-0.121094;9.871094;0.000000;-0.001953;0.001953;-3.250000;17.875000;-40.562500;-0.007751;0.003845;0.000122;0.999939
9.381996;-0.062500;-0.121094;9.871094;0.000000;-0.001953;0.001953;-3.250000;17.875000;-40.562500;-0.007751;0.003845;0.000122;0.999939
9.412998;-0.101563;-0.160156;9.871094;0.001953;-0.001953;-0.001953;-3.250000;17.875000;-40.562500;-0.007751;0.003784;0.000122;0.999939
9.426998;-0.062500;-0.160156;9.871094;0.001953;-0.001953;-0.001953;-2.500000;19.000000;-38.937500;-0.007751;0.003784;0.000122;0.999939
9.441998;-0.062500;-0.160156;9.871094;0.001953;-0.001953;-0.001953;-2.500000;19.000000;-38.937500;-0.007751;0.003784;0.000122;0.999939
9.488998;-0.062500;-0.160156;9.871094;-0.003906;-0.001953;0.000000;-2.500000;17.500000;-40.187500;-0.007813;0.003845;0.000122;0.999939
9.492996;-0.062500;-0.160156;9.871094;-0.003906;-0.001953;0.000000;-2.500000;17.500000;-40.187500;-0.007813;0.003845;0.000122;0.999939
9.525997;-0.101563;-0.160156;9.871094;0.000000;-0.001953;-0.003906;-2.875000;20.062500;-40.187500;-0.007874;0.003784;0.000061;0.999939
9.532997;-0.101563;-0.160156;9.871094;0.000000;-0.001953;-0.003906;-2.875000;20.062500;-40.187500;-0.007874;0.003784;0.000061;0.999939
9.562996;-0.062500;-0.160156;9.871094;-0.001953;-0.001953;0.001953;-2.875000;20.062500;-40.187500;-0.007874;0.003845;0.000061;0.999939
9.574997;-0.062500;-0.160156;9.871094;-0.001953;-0.001953;0.001953;-2.187500;19.000000;-39.750000;-0.007874;0.003845;0.000061;0.999939
9.594997;-0.062500;-0.160156;9.871094;-0.001953;-0.001953;0.001953;-2.187500;19.000000;-39.750000;-0.007874;0.003845;0.000061;0.999939
9.634998;-0.062500;-0.160156;9.835938;-0.001953;-0.001953;0.001953;-2.875000;19.312500;-39.375000;-0.007935;0.003845;0.000122;0.999939
9.644997;-0.101563;-0.121094;9.871094;-0.001953;-0.001953;0.001953;-2.875000;19.312500;-39.375000;-0.007935;0.003845;0.000122;0.999939
9.674999;-0.062500;-0.160156;9.871094;0.000000;0.001953;0.001953;-2.500000;19.000000;-39.750000;-0.007935;0.003845;0.000122;0.999939
9.681999;-0.062500;-0.160156;9.871094;0.000000;0.001953;0.001953;-2.500000;19.000000;-39.750000;-0.007935;0.003845;0.000122;0.999939
9.711998;-0.101563;-0.160156;9.871094;0.003906;-0.001953;0.001953;-2.500000;19.000000;-39.750000;-0.007874;0.003845;0.000122;0.999939
9.724998;-0.101563;-0.160156;9.871094;0.003906;-0.001953;0.001953;-2.500000;19.312500;-39.000000;-0.007874;0.003845;0.000122;0.999939
9.747997;-0.101563;-0.160156;9.871094;0.003906;-0.001953;0.001953;-2.500000;19.312500;-39.000000;-0.007874;0.003845;0.000122;0.999939
9.772999;-0.062500;-0.160156;9.871094;0.000000;0.001953;0.001953;-3.250000;18.625000;-40.562500;-0.007813;0.003845;0.000183;0.999939
9.782997;-0.062500;-0.160156;9.871094;0.000000;0.001953;0.001953;-3.250000;18.625000;-40.562500;-0.007813;0.003845;0.000183;0.999939
9.825996;-0.062500;-0.121094;9.871094;-0.003906;-0.001953;0.001953;-2.500000;19.000000;-39.750000;-0.007874;0.003845;0.000183;0.999939
9.834999;-0.101563;-0.121094;9.871094;-0.003906;-0.001953;0.001953;-2.500000;19.000000;-39.750000;-0.007874;0.003845;0.000183;0.999939
9.862999;-0.101563;-0.160156;9.871094;-0.001953;0.000000;0.000000;-2.500000;19.000000;-39.750000;-0.007935;0.003906;0.000183;0.999939
9.874996;-0.101563;-0.160156;9.871094;-0.001953;0.000000;0.000000;-4.000000;19.312500;-39.750000;-0.007935;0.003906;0.000183;0.999939
9.896999;-0.062500;-0.160156;9.871094;-0.001953;0.000000;0.000000;-4.000000;19.312500;-39.750000;-0.007935;0.003906;0.000183;0.999939
9.919998;-0.062500;-0.160156;9.871094;0.000000;0.001953;0.000000;-2.187500;18.250000;-39.750000;-0.007935;0.003906;0.000183;0.999939
9.936996;-0.062500;-0.160156;9.871094;0.000000;0.001953;0.000000;-2.187500;18.250000;-39.750000;-0.007935;0.003906;0.000183;0.999939
9.959999;-0.101563;-0.121094;9.871094;0.000000;0.000000;0.000000;-2.187500;18.250000;-39.750000;-0.007935;0.003906;0.000183;0.999939
9.989998;-0.062500;-0.160156;9.871094;0.000000;0.000000;0.000000;-3.625000;19.000000;-39.375000;-0.007935;0.003906;0.000183;0.999939
10.006996;-0.062500;-0.160156;9.871094;0.000000;0.000000;0.000000;-3.625000;19.000000;-39.375000;-0.007874;0.003906;0.000183;0.999939
10.029999;-0.062500;-0.121094;9.871094;0.000000;0.000000;0.000000;-2.875000;16.750000;-39.750000;-0.007874;0.003906;0.000183;0.999939
10.042999;-0.062500;-0.121094;9.871094;0.000000;0.000000;0.000000;-2.875000;16.750000;-39.750000;-0.007874;0.003906;0.000183;0.999939
10.072998;-0.062500;-0.121094;9.871094;0.000000;0.000000;0.000000;-1.437500;19.687500;-40.562500;-0.007874;0.003906;0.000183;0.999939
10.084999;-0.101563;-0.121094;9.871094;0.000000;0.000000;0.000000;-1.437500;19.687500;-40.562500;-0.007874;0.003906;0.000183;0.999939
10.107998;-0.101563;-0.121094;9.871094;0.000000;0.000000;0.000000;-1.437500;19.687500;-40.562500;-0.007813;0.003906;0.000183;0.999939
10.129997;-0.062500;-0.160156;9.871094;0.000000;0.000000;0.000000;-2.875000;18.625000;-39.000000;-0.007813;0.003906;0.000183;0.999939
10.160999;-0.062500;-0.160156;9.871094;0.000000;0.000000;0.000000;-2.875000;18.625000;-39.000000;-0.007813;0.003906;0.000183;0.999939
10.179996;-0.101563;-0.121094;9.871094;0.000000;0.000000;0.000000;-2.875000;18.625000;-39.000000;-0.007813;0.003906;0.000183;0.999939
10.191998;-0.101563;-0.121094;9.871094;0.000000;0.000000;0.000000;-2.875000;18.625000;-39.000000;-0.007813;0.003906;0.000183;0.999939
10.224998;-0.101563;-0.160156;9.871094;0.000000;0.000000;0.000000;-3.250000;18.625000;-39.750000;-0.007751;0.003906;0.000183;0.999939
10.231998;-0.101563;-0.160156;9.871094;0.000000;0.000000;0.000000;-3.250000;18.625000;-39.750000;-0.007751;0.003906;0.000183;0.999939
10.259998;-0.062500;-0.160156;9.871094;0.000000;0.000000;0.000000;-3.250000;18.625000;-39.750000;-0.007751;0.003906;0.000183;0.999939
10.279999;-0.062500;-0.121094;9.871094;0.000000;0.000000;0.000000;-2.500000;18.625000;-39.375000;-0.007751;0.003906;0.000183;0.999939
10.292999;-0.062500;-0.121094;9.871094;0.000000;0.000000;0.000000;-2.500000;18.625000;-39.375000;-0.007751;0.003906;0.000183;0.999939
10.337997;-0.062500;-0.121094;9.871094;0.000000;0.000000;0.000000;-2.875000;20.062500;-40.187500;-0.007690;0.003906;0.000183;0.999939
10.341999;-0.062500;-0.121094;9.871094;0.000000;0.000000;0.000000;-2.875000;20.062500;-40.187500;-0.007690;0.003906;0.000183;0.999939
10.375996;-0.062500;-0.121094;9.871094;0.000000;0.000000;0.000000;-2.875000;19.312500;-39.750000;-0.007690;0.003906;0.000183;0.999939
10.381996;-0.062500;-0.121094;9.871094;0.000000;0.000000;0.000000;-2.875000;19.312500;-39.750000;-0.007690;0.003906;0.000183;0.999939
10.412998;-0.062500;-0.160156;9.871094;0.000000;0.000000;0.000000;-2.875000;19.312500;-39.750000;-0.007629;0.003906;0.000183;0.999939
10.427998;-0.062500;-0.121094;9.871094;0.000000;0.000000;0.000000;-3.250000;18.625000;-39.375000;-0.007629;0.003906;0.000183;0.999939
10.441998;-0.062500;-0.121094;9.871094;0.000000;0.000000;0.000000;-3.250000;18.625000;-39.375000;-0.007629;0.003906;0.000183;0.999939
10.474998;-0.062500;-0.160156;9.871094;0.000000;0.000000;0.000000;-2.500000;19.000000;-39.000000;-0.007629;0.003906;0.000183;0.999939
10.494999;-0.101563;-0.160156;9.835938;0.000000;0.000000;0.000000;-2.500000;19.000000;-39.000000;-0.007629;0.003906;0.000183;0.999939
10.519997;-0.101563;-0.160156;9.835938;0.000000;0.000000;0.000000;-2.500000;19.000000;-39.000000;-0.007568;0.003906;0.000183;0.999939
10.537998;-0.101563;-0.121094;9.871094;0.000000;0.000000;0.000000;-2.500000;20.062500;-39.812500;-0.007568;0.003906;0.000183;0.999939
10.562996;-0.062500;-0.160156;9.871094;0.000000;0.000000;0.000000;-2.500000;20.062500;-39.812500;-0.007568;0.003906;0.000183;0.999939
10.574997;-0.062500;-0.160156;9.871094;0.000000;0.000000;0.000000;-3.250000;19.000000;-40.562500;-0.007568;0.003906;0.000183;0.999939
10.594997;-0.062500;-0.160156;9.871094;0.000000;0.000000;0.000000;-3.250000;19.000000;-40.562500;-0.007568;0.003906;0.000183;0.999939
10.625996;-0.062500;-0.121094;9.871094;0.000000;0.000000;0.000000;-3.250000;18.250000;-39.375000;-0.007568;0.003906;0.000183;0.999939
10.631996;-0.062500;-0.121094;9.871094;0.000000;0.000000;0.000000;-3.250000;18.250000;-39.375000;-0.007568;0.003906;0.000183;0.999939
10.677998;-0.062500;-0.160156;9.871094;0.000000;0.000000;0.000000;-3.250000;19.312500;-40.187500;-0.007507;0.003906;0.000183;0.999939
10.681999;-0.062500;-0.160156;9.871094;0.000000;0.000000;0.000000;-3.250000;19.312500;-40.187500;-0.007507;0.003906;0.000183;0.999939
10.711998;-0.062500;-0.121094;9.871094;0.000000;0.000000;0.000000;-3.250000;19.312500;-40.187500;-0.007507;0.003906;0.000183;0.999939
10.724998;-0.062500;-0.121094;9.871094;0.000000;0.000000;0.000000;-2.875000;19.687500;-40.562500;-0.007507;0.003906;0.000183;0.999939
10.744999;-0.101563;-0.121094;9.871094;0.000000;0.000000;0.000000;-2.875000;19.687500;-40.562500;-0.007507;0.003906;0.000183;0.999939
10.769997;-0.101563;-0.121094;9.871094;0.000000;0.000000;0.000000;-2.875000;19.687500;-40.562500;-0.007507;0.003906;0.000183;0.999939
10.787998;-0.062500;-0.160156;9.871094;0.000000;0.000000;0.000000;-3.625000;19.000000;-39.375000;-0.007507;0.003906;0.000183;0.999939
10.812996;-0.062500;-0.160156;9.871094;0.000000;0.000000;0.000000;-3.625000;19.000000;-39.375000;-0.007507;0.003906;0.000183;0.999939
10.836998;-0.062500;-0.160156;9.871094;0.000000;0.000000;0.000000;-3.250000;19.687500;-39.375000;-0.007507;0.003906;0.000183;0.999939
10.859997;-0.062500;-0.160156;9.871094;0.000000;0.000000;0.000000;-3.250000;19.687500;-39.375000;-0.007507;0.003906;0.000183;0.999939
10.876999;-0.062500;-0.121094;9.871094;0.000000;0.000000;0.000000;-2.500000;17.875000;-40.187500;-0.007507;0.003906;0.000183;0.999939
10.891998;-0.062500;-0.121094;9.871094;0.000000;0.000000;0.000000;-2.500000;17.875000;-40.187500;-0.007507;0.003906;0.000183;0.999939
10.924999;-0.101563;-0.160156;9.871094;0.000000;0.000000;0.000000;-2.875000;17.500000;-38.562500;-0.007507;0.003906;0.000183;0.999939
10.934998;-0.062500;-0.160156;9.871094;0.000000;0.000000;0.000000;-2.875000;17.500000;-38.562500;-0.007507;0.003906;0.000183;0.999939
10.959999;-0.062500;-0.121094;9.871094;0.000000;0.000000;0.000000;-2.875000;17.500000;-38.562500;-0.007507;0.003906;0.000122;0.999939
10.974998;-0.062500;-0.121094;9.871094;0.000000;0.000000;0.000000;-2.187500;19.000000;-39.812500;-0.007507;0.003906;0.000122;0.999939
11.012993;-0.101563;-0.160156;9.871094;0.000000;0.000000;0.000000;-2.187500;19.000000;-39.812500;-0.007507;0.003845;0.000122;0.999939
11.027992;-0.101563;-0.160156;9.871094;0.000000;0.000000;0.000000;-2.500000;18.250000;-39.000000;-0.007507;0.003845;0.000122;0.999939
11.043999;-0.101563;-0.160156;9.871094;0.000000;0.000000;0.000000;-2.500000;18.250000;-39.000000;-0.007507;0.003845;0.000122;0.999939
11.072998;-0.062500;-0.160156;9.871094;0.000000;0.000000;0.000000;-2.875000;19.312500;-39.375000;-0.007507;0.003845;0.000122;0.999939
11.082993;-0.062500;-0.160156;9.871094;0.000000;0.000000;0.000000;-2.875000;19.312500;-39.375000;-0.007507;0.003845;0.000122;0.999939
11.112999;-0.062500;-0.160156;9.871094;0.000000;0.000000;0.000000;-2.875000;19.312500;-39.375000;-0.007507;0.003845;0.000122;0.999939
11.126999;-0.062500;-0.121094;9.871094;0.000000;0.000000;0.000000;-2.500000;19.000000;-39.375000;-0.007507;0.003845;0.000122;0.999939
11.141998;-0.062500;-0.121094;9.871094;0.000000;0.000000;0.000000;-2.500000;19.000000;-39.375000;-0.007507;0.003845;0.000122;0.999939
11.187996;-0.101563;-0.160156;9.871094;0.000000;0.000000;0.000000;-2.875000;18.625000;-39.375000;-0.007507;0.003845;0.000122;0.999939
11.192993;-0.101563;-0.160156;9.871094;0.000000;0.000000;0.000000;-2.875000;18.625000;-39.375000;-0.007507;0.003845;0.000122;0.999939
11.223000;-0.062500;-0.121094;9.871094;0.000000;0.000000;0.000000;-3.250000;19.312500;-40.187500;-0.007507;0.003845;0.000122;0.999939
11.231995;-0.062500;-0.121094;9.871094;0.000000;0.000000;0.000000;-3.250000;19.312500;-40.187500;-0.007507;0.003845;0.000122;0.999939
11.259995;-0.062500;-0.160156;9.871094;0.000000;0.000000;0.000000;-3.250000;19.312500;-40.187500;-0.007568;0.003845;0.000122;0.999939
11.279999;-0.062500;-0.160156;9.871094;0.000000;0.000000;0.000000;-3.250000;18.625000;-40.187500;-0.007568;0.003845;0.000122;0.999939
11.292999;-0.062500;-0.160156;9.871094;0.000000;0.000000;0.000000;-3.250000;18.625000;-40.187500;-0.007568;0.003845;0.000122;0.999939
11.325996;-0.062500;-0.160156;9.871094;0.000000;0.000000;0.000000;-3.250000;19.312500;-39.375000;-0.007568;0.003845;0.000122;0.999939
11.344994;-0.062500;-0.160156;9.871094;0.000000;0.000000;0.000000;-3.250000;19.312500;-39.375000;-0.007568;0.003845;0.000122;0.999939
11.375999;-0.062500;-0.121094;9.871094;0.000000;0.000000;0.000000;-2.500000;19.000000;-39.812500;-0.007568;0.003845;0.000122;0.999939
11.381996;-0.062500;-0.121094;9.871094;0.000000;0.000000;0.000000;-2.500000;19.000000;-39.812500;-0.007568;0.003845;0.000122;0.999939
11.410995;-0.062500;-0.160156;9.871094;0.000000;0.000000;0.000000;-2.500000;19.000000;-39.812500;-0.007629;0.003845;0.000122;0.999939
11.426994;-0.062500;-0.160156;9.871094;0.000000;0.000000;0.000000;-3.250000;19.000000;-39.000000;-0.007629;0.003845;0.000122;0.999939
11.445000;-0.062500;-0.160156;9.871094;0.000000;0.000000;0.000000;-3.250000;19.000000;-39.000000;-0.007629;0.003845;0.000122;0.999939
11.474998;-0.101563;-0.121094;9.871094;0.000000;0.000000;0.000000;-2.500000;19.000000;-39.375000;-0.007629;0.003784;0.000122;0.999939
11.481995;-0.101563;-0.121094;9.871094;0.000000;0.000000;0.000000;-2.500000;19.000000;-39.375000;-0.007629;0.003784;0.000122;0.999939
11.527992;-0.101563;-0.160156;9.871094;0.000000;0.000000;0.000000;-2.187500;18.625000;-39.375000;-0.007629;0.003784;0.000122;0.999939
11.532997;-0.062500;-0.160156;9.871094;0.000000;0.000000;0.000000;-2.187500;18.625000;-39.375000;-0.007629;0.003784;0.000122;0.999939
11.562996;-0.101563;-0.160156;9.871094;0.000000;0.000000;0.000000;-2.187500;18.625000;-39.375000;-0.007629;0.003784;0.000122;0.999939
11.574997;-0.101563;-0.160156;9.871094;0.000000;0.000000;0.000000;-2.500000;19.687500;-40.187500;-0.007629;0.003784;0.000122;0.999939
11.594994;-0.062500;-0.160156;9.871094;0.000000;0.000000;0.000000;-2.500000;19.687500;-40.187500;-0.007629;0.003784;0.000122;0.999939
11.625999;-0.062500;-0.160156;9.871094;0.000000;0.000000;0.000000;-3.250000;18.625000;-40.625000;-0.007690;0.003784;0.000122;0.999939
11.631996;-0.062500;-0.160156;9.871094;0.000000;0.000000;0.000000;-3.250000;18.625000;-40.625000;-0.007690;0.003784;0.000122;0.999939
11.662994;-0.062500;-0.160156;9.871094;0.000000;0.000000;0.000000;-3.250000;18.625000;-40.625000;-0.007690;0.003784;0.000122;0.999939
11.687996;-0.062500;-0.121094;9.871094;0.000000;0.000000;0.000000;-2.875000;18.250000;-39.812500;-0.007690;0.003784;0.000122;0.999939
11.707993;-0.062500;-0.121094;9.871094;0.000000;0.000000;0.000000;-2.875000;18.250000;-39.812500;-0.007690;0.003723;0.000122;0.999939
11.727997;-0.062500;-0.160156;9.871094;0.000000;0.000000;0.000000;-3.250000;19.000000;-39.812500;-0.007690;0.003723;0.000122;0.999939
11.742996;-0.062500;-0.160156;9.871094;0.000000;0.000000;0.000000;-3.250000;19.000000;-39.812500;-0.007690;0.003723;0.000122;0.999939
11.777992;-0.101563;-0.160156;9.871094;0.000000;0.000000;0.000000;-3.625000;19.000000;-40.250000;-0.007690;0.003723;0.000122;0.999939
11.782997;-0.101563;-0.160156;9.871094;0.000000;0.000000;0.000000;-3.625000;19.000000;-40.250000;-0.007690;0.003723;0.000122;0.999939
11.812996;-0.062500;-0.160156;9.835938;0.000000;0.000000;0.000000;-3.625000;19.000000;-40.250000;-0.007751;0.003723;0.000122;0.999939
11.824997;-0.062500;-0.160156;9.835938;0.000000;0.000000;0.000000;-2.500000;18.250000;-39.375000;-0.007751;0.003723;0.000122;0.999939
11.862999;-0.062500;-0.160156;9.871094;0.000000;0.000000;0.000000;-2.500000;18.250000;-39.375000;-0.007751;0.003723;0.000122;0.999939
11.876999;-0.062500;-0.160156;9.871094;0.000000;0.000000;0.000000;-2.875000;18.250000;-39.812500;-0.007751;0.003723;0.000122;0.999939
11.891998;-0.062500;-0.160156;9.871094;0.000000;0.000000;0.000000;-2.875000;18.250000;-39.812500;-0.007751;0.003723;0.000122;0.999939
11.924995;-0.101563;-0.160156;9.871094;0.000000;0.000000;0.000000;-2.187500;19.000000;-39.437500;-0.007751;0.003723;0.000122;0.999939
11.934998;-0.101563;-0.160156;9.871094;0.000000;0.000000;0.000000;-2.187500;19.000000;-39.437500;-0.007751;0.003723;0.000122;0.999939
11.959999;-0.062500;-0.121094;9.835938;0.000000;0.000000;0.000000;-2.187500;19.000000;-39.437500;-0.007751;0.003723;0.000122;0.999939
11.977997;-0.062500;-0.160156;9.871094;0.000000;0.000000;0.000000;-2.875000;19.687500;-40.187500;-0.007751;0.003723;0.000122;0.999939
11.992996;-0.062500;-0.160156;9.871094;0.000000;0.000000;0.000000;-2.875000;19.687500;-40.187500;-0.007751;0.003723;0.000122;0.999939
12.038994;-0.062500;-0.160156;9.871094;0.000000;0.000000;0.000000;-2.187500;19.312500;-39.375000;-0.007751;0.003662;0.000122;0.999939
12.042999;-0.062500;-0.160156;9.871094;0.000000;0.000000;0.000000;-2.187500;19.312500;-39.375000;-0.007751;0.003662;0.000122;0.999939
12.075996;-0.062500;-0.160156;9.871094;0.000000;0.000000;0.000000;-3.625000;18.250000;-39.375000;-0.007751;0.003662;0.000061;0.999939
12.082993;-0.062500;-0.160156;9.871094;0.000000;0.000000;0.000000;-3.625000;18.250000;-39.375000;-0.007751;0.003662;0.000061;0.999939
12.112999;-0.101563;-0.121094;9.871094;0.000000;0.000000;0.000000;-3.625000;18.250000;-39.375000;-0.007813;0.003662;0.000061;0.999939
12.122993;-0.101563;-0.121094;9.871094;0.000000;0.000000;0.000000;-3.625000;18.250000;-39.375000;-0.007813;0.003662;0.000061;0.999939
12.147995;-0.062500;-0.160156;9.871094;0.000000;0.000000;0.000000;-2.500000;20.437500;-39.000000;-0.007813;0.003662;0.000061;0.999939
12.174995;-0.062500;-0.160156;9.871094;0.000000;0.000000;0.000000;-3.250000;19.000000;-39.812500;-0.007813;0.003662;0.000061;0.999939
12.196999;-0.062500;-0.121094;9.871094;0.000000;0.000000;0.000000;-3.250000;19.000000;-39.812500;-0.007813;0.003662;0.000061;0.999939
12.219994;-0.101563;-0.160156;9.871094;0.000000;0.000000;0.000000;-3.250000;19.000000;-39.812500;-0.007813;0.003662;0.000061;0.999939
12.234993;-0.101563;-0.160156;9.871094;0.000000;0.000000;0.000000;-1.812500;18.250000;-40.187500;-0.007813;0.003662;0.000061;0.999939
12.262993;-0.062500;-0.160156;9.871094;0.000000;0.000000;0.000000;-1.812500;18.250000;-40.187500;-0.007813;0.003662;0.000061;0.999939
12.274994;-0.062500;-0.160156;9.871094;0.000000;0.000000;0.000000;-2.875000;19.312500;-39.375000;-0.007813;0.003662;0.000061;0.999939
12.296997;-0.062500;-0.160156;9.871094;0.000000;0.000000;0.000000;-2.875000;19.312500;-39.375000;-0.007813;0.003662;0.000061;0.999939
12.320999;-0.101563;-0.121094;9.871094;0.000000;0.000000;0.000000;-2.875000;19.312500;-39.375000;-0.007751;0.003662;0.000061;0.999939
12.334999;-0.101563;-0.121094;9.871094;0.000000;0.000000;0.000000;-2.875000;18.625000;-40.187500;-0.007751;0.003662;0.000061;0.999939
12.372993;-0.062500;-0.160156;9.871094;0.000000;0.000000;0.000000;-2.875000;18.625000;-40.187500;-0.007751;0.003662;0.000061;0.999939
12.389999;-0.062500;-0.160156;9.871094;0.000000;0.000000;0.000000;-3.250000;19.000000;-38.187500;-0.007751;0.003662;0.000061;0.999939
12.410995;-0.101563;-0.160156;9.871094;0.000000;0.000000;0.000000;-3.250000;19.000000;-38.187500;-0.007751;0.003662;0.000061;0.999939
12.424995;-0.101563;-0.160156;9.871094;0.000000;0.000000;0.000000;-3.250000;19.312500;-40.187500;-0.007751;0.003662;0.000061;0.999939
12.447998;-0.062500;-0.160156;9.871094;0.000000;0.000000;0.000000;-3.250000;19.312500;-40.187500;-0.007751;0.003662;0.000061;0.999939
12.469994;-0.062500;-0.160156;9.871094;0.000000;0.000000;0.000000;-3.250000;19.312500;-40.187500;-0.007813;0.003662;0.000061;0.999939
12.487999;-0.062500;-0.160156;9.871094;0.000000;0.000000;0.000000;-2.500000;19.000000;-38.625000;-0.007813;0.003662;0.000061;0.999939
12.509995;-0.062500;-0.121094;9.871094;0.000000;0.000000;0.000000;-2.500000;19.000000;-38.625000;-0.007813;0.003601;0.000061;0.999939
12.540993;-0.062500;-0.121094;9.871094;0.000000;0.000000;0.000000;-1.812500;19.687500;-40.187500;-0.007813;0.003601;0.000061;0.999939
12.557999;-0.062500;-0.121094;9.871094;0.000000;0.000000;0.000000;-1.812500;19.687500;-40.187500;-0.007813;0.003601;0.000061;0.999939
12.579994;-0.062500;-0.160156;9.871094;0.000000;0.000000;0.000000;-2.187500;19.687500;-39.375000;-0.007813;0.003601;0.000061;0.999939
12.591995;-0.062500;-0.160156;9.871094;0.000000;0.000000;0.000000;-2.187500;19.687500;-39.375000;-0.007813;0.003601;0.000061;0.999939
12.620995;-0.062500;-0.160156;9.835938;0.000000;0.000000;0.000000;-2.187500;19.687500;-39.375000;-0.007813;0.003601;0.000061;0.999939
12.639999;-0.101563;-0.121094;9.871094;0.000000;0.000000;0.000000;-4.000000;18.625000;-39.375000;-0.007813;0.003601;0.000061;0.999939
12.660995;-0.062500;-0.121094;9.871094;0.000000;0.000000;0.000000;-4.000000;18.625000;-39.375000;-0.007813;0.003601;0.000061;0.999939
12.676994;-0.062500;-0.121094;9.871094;0.000000;0.000000;0.000000;-2.500000;18.625000;-40.187500;-0.007813;0.003601;0.000061;0.999939
12.709999;-0.101563;-0.160156;9.871094;0.000000;0.000000;0.000000;-2.500000;18.625000;-40.187500;-0.007813;0.003601;0.000061;0.999939
12.729996;-0.101563;-0.160156;9.871094;0.000000;0.000000;0.000000;-2.875000;18.250000;-39.375000;-0.007813;0.003601;0.000061;0.999939
12.742996;-0.101563;-0.160156;9.871094;0.000000;0.000000;0.000000;-2.875000;18.250000;-39.375000;-0.007813;0.003601;0.000061;0.999939
12.772995;-0.062500;-0.160156;9.871094;0.000000;0.000000;0.000000;-2.875000;18.250000;-39.375000;-0.007813;0.003601;0.000061;0.999939
12.787994;-0.062500;-0.121094;9.871094;0.000000;0.000000;0.000000;-3.250000;19.312500;-39.812500;-0.007813;0.003601;0.000061;0.999939
12.807999;-0.062500;-0.121094;9.871094;0.000000;0.000000;0.000000;-3.250000;19.312500;-39.812500;-0.007751;0.003601;0.000061;0.999939
12.829994;-0.062500;-0.160156;9.871094;0.000000;0.000000;0.000000;-2.187500;18.625000;-39.437500;-0.007751;0.003601;0.000061;0.999939
12.841995;-0.062500;-0.160156;9.871094;0.000000;0.000000;0.000000;-2.187500;18.625000;-39.437500;-0.007751;0.003601;0.000061;0.999939
12.887993;-0.062500;-0.160156;9.871094;0.000000;0.000000;0.000000;-3.250000;18.625000;-40.187500;-0.007751;0.003662;0.000061;0.999939
12.891998;-0.062500;-0.160156;9.871094;0.000000;0.000000;0.000000;-3.250000;18.625000;-40.187500;-0.007751;0.003662;0.000061;0.999939
12.924995;-0.062500;-0.160156;9.871094;0.000000;0.000000;0.000000;-2.875000;19.000000;-39.000000;-0.007751;0.003662;0.000061;0.999939
12.931999;-0.062500;-0.160156;9.871094;0.000000;0.000000;0.000000;-2.875000;19.000000;-39.000000;-0.007751;0.003662;0.000061;0.999939
12.961998;-0.101563;-0.121094;9.871094;0.000000;0.000000;0.000000;-2.875000;19.000000;-39.000000;-0.007751;0.003662;0.000061;0.999939
12.977997;-0.101563;-0.160156;9.871094;0.000000;0.000000;0.000000;-3.625000;19.687500;-39.000000;-0.007751;0.003662;0.000061;0.999939
12.992996;-0.101563;-0.160156;9.871094;0.000000;0.000000;0.000000;-3.625000;19.687500;-39.000000;-0.007751;0.003662;0.000061;0.999939
13.025993;-0.062500;-0.121094;9.871094;0.000000;0.000000;0.000000;-3.250000;19.000000;-40.625000;-0.007690;0.003662;0.000061;0.999939
13.044998;-0.101563;-0.160156;9.871094;0.000000;0.000000;0.000000;-3.250000;19.000000;-40.625000;-0.007690;0.003662;0.000061;0.999939
13.075996;-0.101563;-0.160156;9.871094;0.000000;0.000000;0.000000;-2.500000;19.000000;-39.375000;-0.007690;0.003662;0.000061;0.999939
13.082993;-0.101563;-0.160156;9.871094;0.000000;0.000000;0.000000;-2.500000;19.000000;-39.375000;-0.007690;0.003662;0.000061;0.999939
13.112999;-0.062500;-0.160156;9.871094;0.000000;0.000000;0.000000;-2.500000;19.000000;-39.375000;-0.007690;0.003662;0.000061;0.999939
13.122993;-0.062500;-0.160156;9.871094;0.000000;0.000000;0.000000;-2.500000;19.000000;-39.375000;-0.007690;0.003662;0.000061;0.999939
13.147995;-0.062500;-0.121094;9.871094;0.000000;0.000000;0.000000;-2.187500;19.687500;-39.000000;-0.007690;0.003662;0.000061;0.999939
13.174995;-0.101563;-0.160156;9.871094;0.000000;0.000000;0.000000;-3.250000;19.000000;-40.625000;-0.007690;0.003662;0.000061;0.999939
13.181999;-0.101563;-0.160156;9.871094;0.000000;0.000000;0.000000;-3.250000;19.000000;-40.625000;-0.007690;0.003662;0.000061;0.999939
13.227997;-0.101563;-0.160156;9.871094;0.000000;0.000000;0.000000;-3.250000;18.250000;-40.625000;-0.007690;0.003662;0.000061;0.999939
13.231995;-0.101563;-0.160156;9.871094;0.000000;0.000000;0.000000;-3.250000;18.250000;-40.625000;-0.007690;0.003662;0.000061;0.999939
13.262993;-0.062500;-0.160156;9.871094;0.000000;0.000000;0.000000;-3.250000;18.250000;-40.625000;-0.007690;0.003723;0.000061;0.999939
13.271996;-0.062500;-0.160156;9.871094;0.000000;0.000000;0.000000;-3.250000;18.250000;-40.625000;-0.007690;0.003723;0.000061;0.999939
13.296997;-0.101563;-0.160156;9.871094;0.000000;0.000000;0.000000;-2.187500;18.625000;-40.625000;-0.007690;0.003723;0.000061;0.999939
13.320999;-0.062500;-0.160156;9.871094;0.000000;0.000000;0.000000;-2.187500;18.625000;-40.625000;-0.007690;0.003723;0.000061;0.999939
13.334999;-0.062500;-0.160156;9.871094;0.000000;0.000000;0.000000;-2.875000;18.250000;-39.375000;-0.007690;0.003723;0.000061;0.999939
13.362999;-0.062500;-0.160156;9.871094;0.000000;0.000000;0.000000;-2.875000;18.250000;-39.375000;-0.007751;0.003723;0.000061;0.999939
13.386993;-0.062500;-0.160156;9.871094;0.000000;0.000000;0.000000;-2.875000;19.312500;-40.250000;-0.007751;0.003723;0.000061;0.999939
13.412994;-0.062500;-0.160156;9.871094;0.000000;0.000000;0.000000;-2.875000;19.312500;-40.250000;-0.007751;0.003723;0.000061;0.999939
13.421997;-0.101563;-0.160156;9.871094;0.000000;0.000000;0.000000;-2.875000;19.312500;-40.250000;-0.007751;0.003723;0.000061;0.999939
13.449997;-0.062500;-0.160156;9.871094;0.000000;0.000000;0.000000;-3.625000;20.062500;-40.625000;-0.007751;0.003723;0.000061;0.999939
13.466995;-0.062500;-0.160156;9.871094;0.000000;0.000000;0.000000;-3.625000;20.062500;-40.625000;-0.007751;0.003784;0.000061;0.999939
13.489998;-0.062500;-0.160156;9.871094;0.000000;0.000000;0.000000;-2.500000;20.062500;-39.437500;-0.007751;0.003784;0.000061;0.999939
13.509995;-0.062500;-0.160156;9.871094;0.000000;0.000000;0.000000;-2.500000;20.062500;-39.437500;-0.007751;0.003784;0.000061;0.999939
13.521996;-0.101563;-0.121094;9.871094;0.000000;0.000000;0.000000;-2.500000;20.062500;-39.437500;-0.007751;0.003784;0.000061;0.999939
13.568993;-0.062500;-0.160156;9.871094;0.000000;0.000000;0.000000;-2.875000;18.625000;-40.187500;-0.007813;0.003784;0.000061;0.999939
13.572998;-0.062500;-0.160156;9.871094;0.000000;0.000000;0.000000;-2.875000;18.625000;-40.187500;-0.007813;0.003784;0.000061;0.999939
13.599998;-0.101563;-0.160156;9.871094;0.000000;0.000000;0.000000;-2.500000;19.000000;-39.812500;-0.007813;0.003784;0.000061;0.999939
13.617996;-0.101563;-0.160156;9.871094;0.000000;0.000000;0.000000;-2.500000;19.000000;-39.812500;-0.007813;0.003784;0.000061;0.999939
13.639999;-0.101563;-0.160156;9.871094;0.000000;0.000000;0.000000;-2.875000;18.625000;-40.187500;-0.007813;0.003784;0.000061;0.999939
13.651993;-0.101563;-0.160156;9.871094;0.000000;0.000000;0.000000;-2.875000;18.625000;-40.187500;-0.007813;0.003784;0.000061;0.999939
13.684998;-0.062500;-0.160156;9.871094;0.000000;0.000000;0.000000;-3.250000;18.625000;-40.187500;-0.007813;0.003784;0.000061;0.999939
13.695000;-0.101563;-0.160156;9.871094;0.000000;0.000000;0.000000;-3.250000;18.625000;-40.187500;-0.007813;0.003784;0.000061;0.999939
13.735992;-0.101563;-0.121094;9.871094;0.000000;0.000000;0.000000;-3.625000;18.625000;-40.187500;-0.007813;0.003784;0.000061;0.999939
13.742996;-0.101563;-0.121094;9.871094;0.000000;0.000000;0.000000;-3.625000;18.625000;-40.187500;-0.007813;0.003784;0.000061;0.999939
13.769997;-0.062500;-0.160156;9.871094;0.000000;0.000000;0.000000;-3.625000;18.625000;-40.187500;-0.007813;0.003845;0.000061;0.999939
13.790993;-0.101563;-0.160156;9.871094;0.000000;0.000000;0.000000;-2.875000;19.000000;-40.187500;-0.007813;0.003845;0.000061;0.999939
13.801994;-0.101563;-0.160156;9.871094;0.000000;0.000000;0.000000;-2.875000;19.000000;-40.187500;-0.007813;0.003845;0.000061;0.999939
13.834999;-0.101563;-0.160156;9.871094;0.000000;0.000000;0.000000;-2.875000;18.250000;-39.000000;-0.007813;0.003845;0.000061;0.999939
13.841995;-0.101563;-0.160156;9.871094;0.000000;0.000000;0.000000;-2.875000;18.250000;-39.000000;-0.007813;0.003845;0.000061;0.999939
13.872993;-0.062500;-0.160156;9.871094;0.000000;0.000000;0.000000;-2.875000;18.250000;-39.000000;-0.007813;0.003906;0.000061;0.999939
13.897995;-0.062500;-0.160156;9.871094;0.000000;0.000000;0.000000;-2.875000;19.687500;-39.812500;-0.007813;0.003906;0.000061;0.999939
13.921997;-0.062500;-0.160156;9.871094;0.000000;0.000000;0.000000;-2.875000;19.687500;-39.812500;-0.007813;0.003906;0.000061;0.999939
13.934998;-0.062500;-0.160156;9.871094;0.000000;0.000000;0.000000;-2.500000;19.687500;-38.625000;-0.007813;0.003906;0.000061;0.999939
13.959999;-0.101563;-0.121094;9.871094;0.000000;0.000000;0.000000;-2.500000;19.687500;-38.625000;-0.007813;0.003906;0.000061;0.999939
13.971992;-0.101563;-0.121094;9.871094;0.000000;0.000000;0.000000;-2.500000;19.687500;-38.625000;-0.007813;0.003906;0.000061;0.999939
13.997993;-0.062500;-0.121094;9.871094;0.000000;0.000000;0.000000;-2.500000;18.250000;-39.812500;-0.007813;0.003906;0.000061;0.999939
14.022995;-0.062500;-0.160156;9.871094;0.000000;0.000000;0.000000;-2.500000;18.250000;-39.812500;-0.007874;0.003967;0.000061;0.999939
14.034996;-0.062500;-0.160156;9.871094;0.000000;0.000000;0.000000;-3.250000;17.875000;-39.000000;-0.007874;0.003967;0.000061;0.999939
14.078995;-0.062500;-0.160156;9.871094;0.000000;0.000000;0.000000;-3.250000;18.625000;-39.000000;-0.007874;0.003967;0.000061;0.999939
14.082993;-0.062500;-0.160156;9.871094;0.000000;0.000000;0.000000;-3.250000;18.625000;-39.000000;-0.007874;0.003967;0.000061;0.999939
14.112999;-0.062500;-0.160156;9.871094;0.000000;0.000000;0.000000;-3.250000;18.625000;-39.000000;-0.007874;0.003967;0.000000;0.999939
14.122993;-0.062500;-0.160156;9.871094;0.000000;0.000000;0.000000;-3.250000;18.625000;-39.000000;-0.007874;0.003967;0.000000;0.999939
14.147995;-0.062500;-0.121094;9.871094;0.000000;0.000000;0.000000;-2.875000;19.312500;-41.437500;-0.007874;0.003967;0.000000;0.999939
14.171997;-0.101563;-0.121094;9.871094;0.000000;0.000000;0.000000;-2.875000;19.312500;-41.437500;-0.007874;0.003967;0.000000;0.999939
14.184998;-0.101563;-0.121094;9.871094;0.000000;0.000000;0.000000;-2.875000;19.312500;-39.437500;-0.007874;0.003967;0.000000;0.999939
14.211998;-0.062500;-0.160156;9.871094;0.000000;0.000000;0.000000;-2.875000;19.312500;-39.437500;-0.007874;0.003967;0.000000;0.999939
14.237999;-0.062500;-0.160156;9.871094;0.000000;0.000000;0.000000;-2.500000;17.125000;-39.000000;-0.007874;0.003967;0.000000;0.999939
14.251999;-0.062500;-0.160156;9.871094;0.000000;0.000000;0.000000;-2.500000;17.125000;-39.000000;-0.007874;0.003967;0.000000;0.999939
14.285995;-0.101563;-0.121094;9.871094;0.000000;0.000000;0.000000;-2.875000;18.625000;-40.187500;-0.007813;0.003967;0.000000;0.999939
14.294998;-0.101563;-0.160156;9.871094;0.000000;0.000000;0.000000;-2.875000;18.625000;-40.187500;-0.007813;0.003967;0.000000;0.999939
14.322998;-0.101563;-0.160156;9.871094;0.000000;0.000000;0.000000;-2.875000;18.625000;-40.187500;-0.007813;0.003967;0.000000;0.999939
14.334999;-0.101563;-0.160156;9.871094;0.000000;0.000000;0.000000;-3.625000;18.625000;-39.000000;-0.007813;0.003967;0.000000;0.999939
14.362999;-0.062500;-0.160156;9.871094;0.000000;0.000000;0.000000;-3.625000;18.625000;-39.000000;-0.007813;0.003967;0.000000;0.999939
14.372993;-0.062500;-0.160156;9.871094;0.000000;0.000000;0.000000;-3.625000;18.625000;-39.000000;-0.007813;0.003967;0.000000;0.999939
14.417999;-0.062500;-0.160156;9.871094;0.000000;0.000000;0.000000;-3.250000;19.312500;-39.437500;-0.007813;0.003967;0.000000;0.999939
14.421997;-0.062500;-0.160156;9.871094;0.000000;0.000000;0.000000;-3.250000;19.312500;-39.437500;-0.007813;0.003967;0.000000;0.999939
14.445000;-0.062500;-0.160156;9.871094;0.000000;0.000000;0.000000;-2.500000;18.250000;-40.625000;-0.007813;0.003967;0.000000;0.999939
14.473000;-0.062500;-0.160156;9.871094;0.000000;0.000000;0.000000;-2.500000;18.250000;-40.625000;-0.007813;0.003967;0.000000;0.999939
14.487999;-0.062500;-0.160156;9.871094;0.000000;0.000000;0.000000;-3.250000;19.312500;-40.250000;-0.007813;0.003967;0.000000;0.999939
14.501999;-0.062500;-0.160156;9.871094;0.000000;0.000000;0.000000;-3.250000;19.312500;-40.250000;-0.007813;0.003967;0.000000;0.999939
14.532997;-0.062500;-0.121094;9.871094;0.000000;0.000000;0.000000;-3.250000;19.687500;-39.812500;-0.007813;0.003967;0.000000;0.999939
14.546997;-0.062500;-0.121094;9.871094;0.000000;0.000000;0.000000;-3.250000;19.687500;-39.812500;-0.007813;0.003967;0.000000;0.999939
14.582993;-0.062500;-0.160156;9.871094;0.000000;0.000000;0.000000;-2.500000;20.062500;-40.625000;-0.007813;0.003967;0.000000;0.999939
14.591995;-0.062500;-0.160156;9.871094;0.000000;0.000000;0.000000;-2.500000;20.062500;-40.625000;-0.007813;0.003967;0.000000;0.999939
14.620995;-0.062500;-0.160156;9.871094;0.000000;0.000000;0.000000;-2.500000;20.062500;-40.625000;-0.007813;0.003906;0.000000;0.999939
14.639999;-0.062500;-0.160156;9.871094;0.000000;0.000000;0.000000;-1.812500;18.250000;-39.437500;-0.007813;0.003906;0.000000;0.999939
14.651993;-0.062500;-0.160156;9.871094;0.000000;0.000000;0.000000;-1.812500;18.250000;-39.437500;-0.007813;0.003906;0.000000;0.999939
14.682999;-0.101563;-0.160156;9.835938;0.000000;0.000000;0.000000;-2.875000;19.687500;-39.437500;-0.007813;0.003906;0.000000;0.999939
14.692993;-0.101563;-0.160156;9.835938;0.000000;0.000000;0.000000;-2.875000;19.687500;-39.437500;-0.007813;0.003906;0.000000;0.999939
14.719994;-0.062500;-0.160156;9.871094;0.000000;0.000000;0.000000;-2.875000;19.687500;-39.437500;-0.007813;0.003906;0.000000;0.999939
14.749992;-0.062500;-0.160156;9.871094;0.000000;0.000000;0.000000;-3.250000;20.062500;-39.437500;-0.007813;0.003906;0.000000;0.999939
14.769997;-0.101563;-0.121094;9.871094;0.000000;0.000000;0.000000;-3.250000;20.062500;-39.437500;-0.007813;0.003845;0.000000;0.999939
14.787994;-0.101563;-0.121094;9.871094;0.000000;0.000000;0.000000;-3.250000;19.000000;-38.187500;-0.007813;0.003845;0.000000;0.999939
14.804993;-0.062500;-0.160156;9.871094;0.000000;0.000000;0.000000;-3.250000;19.000000;-38.187500;-0.007813;0.003845;0.000000;0.999939
14.834999;-0.062500;-0.160156;9.871094;0.000000;0.000000;0.000000;-2.187500;19.687500;-39.437500;-0.007813;0.003845;0.000000;0.999939
14.841995;-0.062500;-0.160156;9.871094;0.000000;0.000000;0.000000;-2.187500;19.687500;-39.437500;-0.007813;0.003845;0.000000;0.999939
14.870995;-0.101563;-0.160156;9.871094;0.000000;0.000000;0.000000;-2.187500;19.687500;-39.437500;-0.007813;0.003845;0.000000;0.999939
14.889999;-0.101563;-0.160156;9.871094;0.000000;0.000000;0.000000;-2.187500;17.875000;-39.812500;-0.007813;0.003845;0.000000;0.999939
14.919998;-0.062500;-0.160156;9.871094;0.000000;0.000000;0.000000;-2.187500;17.875000;-39.812500;-0.007874;0.003784;0.000000;0.999939
14.936996;-0.062500;-0.160156;9.871094;0.000000;0.000000;0.000000;-3.250000;19.000000;-39.812500;-0.007874;0.003784;0.000000;0.999939
14.954994;-0.062500;-0.121094;9.871094;0.000000;0.000000;0.000000;-3.250000;19.000000;-39.812500;-0.007874;0.003784;0.000000;0.999939
14.985992;-0.101563;-0.121094;9.871094;0.000000;0.000000;0.000000;-2.875000;19.687500;-39.437500;-0.007874;0.003784;0.000000;0.999939
14.992996;-0.101563;-0.121094;9.871094;0.000000;0.000000;0.000000;-2.875000;19.687500;-39.437500;-0.007874;0.003784;0.000000;0.999939
15.022995;-0.062500;-0.160156;9.871094;0.000000;0.000000;0.000000;-2.875000;19.687500;-39.437500;-0.007874;0.003845;0.000000;0.999939
15.034996;-0.062500;-0.160156;9.871094;0.000000;0.000000;0.000000;-3.250000;17.500000;-40.625000;-0.007874;0.003845;0.000000;0.999939
15.054993;-0.062500;-0.160156;9.871094;0.000000;0.000000;0.000000;-3.250000;17.500000;-40.625000;-0.007874;0.003845;0.000000;0.999939
15.094994;-0.062500;-0.121094;9.871094;0.000000;0.000000;0.000000;-2.500000;18.625000;-39.812500;-0.007874;0.003845;0.000000;0.999939
15.101997;-0.062500;-0.121094;9.871094;0.000000;0.000000;0.000000;-2.500000;18.625000;-39.812500;-0.007874;0.003845;0.000000;0.999939
15.134995;-0.062500;-0.160156;9.871094;0.000000;0.000000;0.000000;-2.875000;19.687500;-40.625000;-0.007874;0.003845;0.000000;0.999939
15.144997;-0.062500;-0.160156;9.871094;0.000000;0.000000;0.000000;-2.875000;19.687500;-40.625000;-0.007874;0.003845;0.000000;0.999939
15.172997;-0.062500;-0.160156;9.871094;0.000000;0.000000;0.000000;-2.875000;19.687500;-40.625000;-0.007874;0.003845;0.000000;0.999939
15.184998;-0.062500;-0.160156;9.871094;0.000000;0.000000;0.000000;-2.500000;17.500000;-39.437500;-0.007874;0.003845;0.000000;0.999939
15.204994;-0.101563;-0.121094;9.871094;0.000000;0.000000;0.000000;-2.500000;17.500000;-39.437500;-0.007874;0.003845;0.000000;0.999939
15.235992;-0.062500;-0.160156;9.871094;0.000000;0.000000;0.000000;-2.187500;18.625000;-39.000000;-0.007874;0.003845;0.000000;0.999939
15.251999;-0.062500;-0.160156;9.871094;0.000000;0.000000;0.000000;-2.187500;18.625000;-39.000000;-0.007874;0.003845;0.000000;0.999939
15.285995;-0.062500;-0.160156;9.871094;0.000000;0.000000;0.000000;-2.875000;19.000000;-39.000000;-0.007874;0.003784;0.000000;0.999939
15.294998;-0.062500;-0.160156;9.871094;0.000000;0.000000;0.000000;-2.875000;19.000000;-39.000000;-0.007874;0.003784;0.000000;0.999939
15.320000;-0.062500;-0.160156;9.871094;0.000000;0.000000;0.000000;-2.875000;19.000000;-39.000000;-0.007874;0.003784;0.000000;0.999939
15.336998;-0.101563;-0.121094;9.871094;0.000000;0.000000;0.000000;-1.062500;18.625000;-40.250000;-0.007874;0.003784;0.000000;0.999939
15.351997;-0.101563;-0.121094;9.871094;0.000000;0.000000;0.000000;-1.062500;18.625000;-40.250000;-0.007874;0.003784;0.000000;0.999939
15.384995;-0.062500;-0.160156;9.871094;0.000000;0.000000;0.000000;-2.875000;19.312500;-40.250000;-0.007874;0.003784;0.000000;0.999939
15.394997;-0.101563;-0.121094;9.871094;0.000000;0.000000;0.000000;-2.875000;19.312500;-40.250000;-0.007874;0.003784;0.000000;0.999939
15.434998;-0.062500;-0.160156;9.871094;0.000000;0.000000;0.000000;-3.625000;18.250000;-39.437500;-0.007874;0.003784;0.000000;0.999939
15.441994;-0.062500;-0.160156;9.871094;0.000000;0.000000;0.000000;-3.625000;18.250000;-39.437500;-0.007874;0.003784;0.000000;0.999939
15.473000;-0.062500;-0.160156;9.871094;0.000000;0.000000;0.000000;-3.625000;18.250000;-39.437500;-0.007874;0.003784;0.000000;0.999939
15.487999;-0.101563;-0.121094;9.871094;0.000000;0.000000;0.000000;-1.437500;19.312500;-39.812500;-0.007874;0.003784;0.000000;0.999939
15.501999;-0.101563;-0.121094;9.871094;0.000000;0.000000;0.000000;-1.437500;19.312500;-39.812500;-0.007874;0.003784;0.000000;0.999939
15.535995;-0.062500;-0.121094;9.871094;0.000000;0.000000;0.000000;-2.500000;19.687500;-39.437500;-0.007813;0.003784;0.000000;0.999939
15.542999;-0.062500;-0.121094;9.871094;0.000000;0.000000;0.000000;-2.500000;19.687500;-39.437500;-0.007813;0.003784;0.000000;0.999939
15.572998;-0.062500;-0.160156;9.871094;0.000000;0.000000;0.000000;-2.500000;19.687500;-39.437500;-0.007813;0.003784;0.000000;0.999939
15.596992;-0.101563;-0.160156;9.871094;0.000000;0.000000;0.000000;-2.500000;19.312500;-39.812500;-0.007813;0.003784;0.000000;0.999939
15.622993;-0.062500;-0.160156;9.871094;0.000000;0.000000;0.000000;-2.500000;19.312500;-39.812500;-0.007813;0.003784;0.000000;0.999939
15.634995;-0.062500;-0.160156;9.871094;0.000000;0.000000;0.000000;-2.875000;20.062500;-39.437500;-0.007813;0.003784;0.000000;0.999939
15.662994;-0.062500;-0.121094;9.871094;0.000000;0.000000;0.000000;-2.875000;20.062500;-39.437500;-0.007751;0.003784;0.000000;0.999939
15.674995;-0.101563;-0.160156;9.871094;0.000000;0.000000;0.000000;-2.875000;20.062500;-39.437500;-0.007751;0.003784;0.000000;0.999939
15.696999;-0.101563;-0.160156;9.871094;0.000000;0.000000;0.000000;-3.625000;20.062500;-39.812500;-0.007751;0.003784;0.000000;0.999939
15.719994;-0.062500;-0.160156;9.871094;0.000000;0.000000;0.000000;-3.625000;20.062500;-39.812500;-0.007751;0.003784;0.000000;0.999939
15.739998;-0.101563;-0.160156;9.871094;0.000000;0.000000;0.000000;-2.875000;18.625000;-41.000000;-0.007751;0.003784;0.000000;0.999939
15.769997;-0.062500;-0.160156;9.871094;0.000000;0.000000;0.000000;-2.875000;18.625000;-41.000000;-0.007751;0.003845;0.000000;0.999939
15.784996;-0.062500;-0.160156;9.871094;0.000000;0.000000;0.000000;-1.062500;19.000000;-39.812500;-0.007751;0.003845;0.000000;0.999939
15.804993;-0.062500;-0.121094;9.871094;0.000000;0.000000;0.000000;-1.062500;19.000000;-39.812500;-0.007751;0.003845;0.000000;0.999939
15.827995;-0.062500;-0.121094;9.871094;0.000000;0.000000;0.000000;-1.062500;19.000000;-39.812500;-0.007751;0.003845;0.000000;0.999939
15.849998;-0.101563;-0.121094;9.871094;0.000000;0.000000;0.000000;-3.625000;17.875000;-38.625000;-0.007751;0.003845;0.000000;0.999939
15.870995;-0.062500;-0.160156;9.871094;0.000000;0.000000;0.000000;-3.625000;17.875000;-38.625000;-0.007751;0.003845;0.000000;0.999939
15.886993;-0.062500;-0.160156;9.871094;0.000000;0.000000;0.000000;-2.500000;19.312500;-39.812500;-0.007751;0.003845;0.000000;0.999939
15.904999;-0.062500;-0.160156;9.871094;0.000000;0.000000;0.000000;-2.500000;19.312500;-39.812500;-0.007751;0.003845;0.000000;0.999939
15.945000;-0.101563;-0.160156;9.871094;0.000000;0.000000;0.000000;-2.500000;19.312500;-39.437500;-0.007751;0.003845;0.000000;0.999939
15.955994;-0.062500;-0.160156;9.871094;0.000000;0.000000;0.000000;-2.500000;19.312500;-39.437500;-0.007751;0.003845;0.000000;0.999939
15.982994;-0.062500;-0.160156;9.871094;0.000000;0.000000;0.000000;-2.187500;19.312500;-39.812500;-0.007751;0.003845;0.000000;0.999939
15.994995;-0.062500;-0.160156;9.871094;0.000000;0.000000;0.000000;-2.187500;19.312500;-39.812500;-0.007751;0.003845;0.000000;0.999939
16.019997;-0.101563;-0.121094;9.871094;0.000000;0.000000;0.000000;-2.187500;19.312500;-39.812500;-0.007690;0.003845;0.000000;0.999939
16.035995;-0.101563;-0.121094;9.871094;0.000000;0.000000;0.000000;-3.625000;19.000000;-40.250000;-0.007690;0.003845;0.000000;0.999939
16.054993;-0.062500;-0.121094;9.871094;0.000000;0.000000;0.000000;-3.625000;19.000000;-40.250000;-0.007690;0.003845;0.000000;0.999939
16.077995;-0.062500;-0.121094;9.871094;0.000000;0.000000;0.000000;-3.625000;19.000000;-40.250000;-0.007751;0.003845;0.000000;0.999939
16.118996;-0.062500;-0.121094;9.871094;0.000000;0.000000;0.000000;-2.500000;19.312500;-39.437500;-0.007690;0.003845;0.000000;0.999939
16.124992;-0.062500;-0.121094;9.871094;0.000000;0.000000;0.000000;-2.500000;19.312500;-39.437500;-0.007690;0.003845;0.000000;0.999939
16.147995;-0.101563;-0.160156;9.871094;0.000000;0.000000;0.000000;-3.250000;20.437500;-41.062500;-0.007690;0.003845;0.000000;0.999939
16.167999;-0.101563;-0.160156;9.871094;0.000000;0.000000;0.000000;-3.250000;20.437500;-41.062500;-0.007690;0.003845;0.000000;0.999939
16.189995;-0.101563;-0.160156;9.871094;0.000000;0.000000;0.000000;-2.187500;18.625000;-38.625000;-0.007690;0.003845;0.000000;0.999939
16.202995;-0.101563;-0.160156;9.871094;0.000000;0.000000;0.000000;-2.187500;18.625000;-38.625000;-0.007690;0.003845;0.000000;0.999939
16.238998;-0.062500;-0.121094;9.871094;0.000000;0.000000;0.000000;-2.500000;19.687500;-39.812500;-0.007690;0.003906;0.000000;0.999939
16.242996;-0.062500;-0.121094;9.871094;0.000000;0.000000;0.000000;-2.500000;19.687500;-39.812500;-0.007690;0.003906;0.000000;0.999939
16.285995;-0.062500;-0.160156;9.871094;0.000000;0.000000;0.000000;-3.625000;19.312500;-39.437500;-0.007690;0.003906;0.000000;0.999939
16.292999;-0.062500;-0.160156;9.871094;0.000000;0.000000;0.000000;-3.625000;19.312500;-39.437500;-0.007690;0.003906;0.000000;0.999939
16.322998;-0.062500;-0.160156;9.871094;0.000000;0.000000;0.000000;-3.625000;19.312500;-39.437500;-0.007690;0.003906;0.000000;0.999939
16.336998;-0.062500;-0.160156;9.871094;0.000000;0.000000;0.000000;-3.250000;19.312500;-40.625000;-0.007690;0.003906;0.000000;0.999939
16.351997;-0.062500;-0.160156;9.871094;0.000000;0.000000;0.000000;-3.250000;19.312500;-40.625000;-0.007690;0.003906;0.000000;0.999939
16.384995;-0.101563;-0.121094;9.871094;0.000000;0.000000;0.000000;-3.250000;18.625000;-39.000000;-0.007690;0.003906;0.000000;0.999939
16.394997;-0.101563;-0.160156;9.871094;0.000000;0.000000;0.000000;-3.250000;18.625000;-39.000000;-0.007690;0.003906;0.000000;0.999939
16.419998;-0.101563;-0.160156;9.871094;0.000000;0.000000;0.000000;-3.250000;18.625000;-39.000000;-0.007629;0.003845;0.000000;0.999939
16.447998;-0.062500;-0.160156;9.871094;0.000000;0.000000;0.000000;-2.500000;18.250000;-40.625000;-0.007629;0.003845;0.000000;0.999939
16.473000;-0.101563;-0.121094;9.871094;0.000000;0.000000;0.000000;-2.500000;18.250000;-40.625000;-0.007629;0.003845;0.000000;0.999939
16.484993;-0.101563;-0.121094;9.871094;0.000000;0.000000;0.000000;-3.250000;18.625000;-40.625000;-0.007629;0.003845;0.000000;0.999939
16.504997;-0.062500;-0.121094;9.871094;0.000000;0.000000;0.000000;-3.250000;18.625000;-40.625000;-0.007629;0.003845;0.000000;0.999939
16.535995;-0.062500;-0.160156;9.871094;0.000000;0.000000;0.000000;-3.250000;17.875000;-39.000000;-0.007629;0.003845;0.000000;0.999939
16.542999;-0.062500;-0.160156;9.871094;0.000000;0.000000;0.000000;-3.250000;17.875000;-39.000000;-0.007629;0.003845;0.000000;0.999939
16.572998;-0.062500;-0.160156;9.871094;0.000000;0.000000;0.000000;-3.250000;17.875000;-39.000000;-0.007629;0.003906;0.000000;0.999939
16.586998;-0.062500;-0.121094;9.871094;0.000000;0.000000;0.000000;-2.500000;18.250000;-39.812500;-0.007629;0.003906;0.000000;0.999939
16.622993;-0.101563;-0.121094;9.871094;0.000000;0.000000;0.000000;-2.500000;18.250000;-39.812500;-0.007629;0.003906;0.000000;0.999939
16.634995;-0.101563;-0.121094;9.871094;0.000000;0.000000;0.000000;-2.187500;19.000000;-39.437500;-0.007629;0.003906;0.000000;0.999939
16.654999;-0.062500;-0.160156;9.871094;0.000000;0.000000;0.000000;-2.187500;19.000000;-39.437500;-0.007629;0.003906;0.000000;0.999939
16.682999;-0.062500;-0.160156;9.871094;0.000000;0.000000;0.000000;-2.875000;19.312500;-38.625000;-0.007629;0.003906;0.000000;0.999939
16.691994;-0.062500;-0.160156;9.871094;0.000000;0.000000;0.000000;-2.875000;19.312500;-38.625000;-0.007629;0.003906;0.000000;0.999939
16.723000;-0.101563;-0.121094;9.871094;0.000000;0.000000;0.000000;-2.875000;19.312500;-38.625000;-0.007629;0.003906;0.000000;0.999939
16.734993;-0.101563;-0.121094;9.871094;0.000000;0.000000;0.000000;-2.875000;19.312500;-38.625000;-0.007629;0.003906;0.000000;0.999939
16.756996;-0.101563;-0.160156;9.871094;0.000000;0.000000;0.000000;-2.875000;19.312500;-38.625000;-0.007629;0.003906;0.000000;0.999939
16.792999;-0.101563;-0.160156;9.835938;0.000000;0.000000;0.000000;-2.187500;19.000000;-39.437500;-0.007629;0.003906;0.000000;0.999939
16.806999;-0.062500;-0.121094;9.871094;0.000000;0.000000;0.000000;-2.187500;19.000000;-39.437500;-0.007629;0.003906;0.000000;0.999939
16.827995;-0.062500;-0.121094;9.871094;0.000000;0.000000;0.000000;-2.187500;19.000000;-39.437500;-0.007568;0.003906;0.000000;0.999939
16.846992;-0.062500;-0.085938;9.871094;0.000000;0.000000;0.000000;-2.500000;20.062500;-39.437500;-0.007568;0.003906;0.000000;0.999939
16.870995;-0.062500;-0.160156;9.871094;0.000000;0.000000;0.000000;-2.500000;20.062500;-39.437500;-0.007568;0.003906;0.000000;0.999939
16.884995;-0.062500;-0.160156;9.871094;0.000000;0.000000;0.000000;-2.875000;17.875000;-41.062500;-0.007568;0.003906;0.000000;0.999939
16.907997;-0.101563;-0.199219;9.867188;0.000000;0.000000;0.000000;-2.875000;17.875000;-41.062500;-0.007568;0.003906;0.000000;0.999939
16.932999;-0.101563;-0.160156;9.871094;0.000000;0.000000;0.000000;-3.250000;20.062500;-39.437500;-0.007568;0.003906;0.000000;0.999939
16.954994;-0.101563;-0.160156;9.871094;0.000000;0.000000;0.000000;-3.250000;20.062500;-39.437500;-0.007568;0.003906;0.000000;0.999939
16.982994;-0.062500;-0.121094;9.871094;0.000000;0.000000;0.000000;-4.000000;17.875000;-39.000000;-0.007568;0.003906;0.000000;0.999939
16.997993;-0.062500;-0.121094;9.871094;0.000000;0.000000;0.000000;-4.000000;17.875000;-39.000000;-0.007568;0.003906;0.000000;0.999939
17.017998;-0.062500;-0.121094;9.871094;0.000000;0.000000;0.000000;-4.000000;17.875000;-39.000000;-0.007568;0.003906;0.000000;0.999939
17.037994;-0.101563;-0.160156;9.871094;0.000000;0.000000;0.000000;-3.625000;19.000000;-41.437500;-0.007568;0.003906;0.000000;0.999939
17.054993;-0.062500;-0.160156;9.871094;0.000000;0.000000;0.000000;-3.625000;19.000000;-41.437500;-0.007568;0.003906;0.000000;0.999939
17.077995;-0.062500;-0.160156;9.871094;0.000000;0.000000;0.000000;-3.625000;19.000000;-41.437500;-0.007568;0.003906;0.000061;0.999939
17.099998;-0.062500;-0.121094;9.871094;0.000000;0.000000;0.000000;-2.187500;17.500000;-40.250000;-0.007568;0.003906;0.000061;0.999939
17.132996;-0.062500;-0.160156;9.871094;0.000000;0.000000;0.000000;-2.187500;18.250000;-39.437500;-0.007568;0.003906;0.000061;0.999939
17.144997;-0.062500;-0.160156;9.871094;0.000000;0.000000;0.000000;-2.187500;18.250000;-39.437500;-0.007568;0.003906;0.000061;0.999939
17.169998;-0.062500;-0.160156;9.871094;0.000000;0.000000;0.000000;-2.187500;18.250000;-39.437500;-0.007568;0.003906;0.000061;0.999939
17.189995;-0.101563;-0.121094;9.871094;0.000000;0.000000;0.000000;-3.250000;18.625000;-41.062500;-0.007568;0.003906;0.000061;0.999939
17.202995;-0.101563;-0.121094;9.871094;0.000000;0.000000;0.000000;-3.250000;18.625000;-41.062500;-0.007568;0.003906;0.000061;0.999939
17.234993;-0.101563;-0.121094;9.871094;0.000000;0.000000;0.000000;-3.250000;19.000000;-40.250000;-0.007568;0.003906;0.000061;0.999939
17.244995;-0.062500;-0.160156;9.871094;0.000000;0.000000;0.000000;-3.250000;19.000000;-40.250000;-0.007568;0.003906;0.000061;0.999939
17.267998;-0.062500;-0.160156;9.871094;0.000000;0.000000;0.000000;-3.250000;19.000000;-40.250000;-0.007568;0.003906;0.000061;0.999939
17.299995;-0.062500;-0.160156;9.871094;0.000000;0.000000;0.000000;-3.625000;19.687500;-39.812500;-0.007568;0.003906;0.000061;0.999939
17.320000;-0.101563;-0.121094;9.871094;0.000000;0.000000;0.000000;-3.625000;19.687500;-39.812500;-0.007568;0.003906;0.000061;0.999939
17.339996;-0.062500;-0.121094;9.871094;0.000000;0.000000;0.000000;-2.500000;18.250000;-39.437500;-0.007568;0.003906;0.000061;0.999939
17.351997;-0.062500;-0.121094;9.871094;0.000000;0.000000;0.000000;-2.500000;18.250000;-39.437500;-0.007568;0.003906;0.000061;0.999939
17.384995;-0.062500;-0.160156;9.871094;0.000000;0.000000;0.000000;-2.187500;18.625000;-40.250000;-0.007568;0.003906;0.000061;0.999939
17.391998;-0.062500;-0.160156;9.871094;0.000000;0.000000;0.000000;-2.187500;18.625000;-40.250000;-0.007568;0.003906;0.000061;0.999939
17.419998;-0.062500;-0.160156;9.871094;0.000000;0.000000;0.000000;-2.187500;18.625000;-40.250000;-0.007568;0.003906;0.000061;0.999939
17.439995;-0.062500;-0.121094;9.871094;0.000000;0.000000;0.000000;-2.875000;19.312500;-39.000000;-0.007568;0.003906;0.000061;0.999939
17.471992;-0.062500;-0.160156;9.871094;0.000000;0.000000;0.000000;-2.875000;19.312500;-39.000000;-0.007507;0.003906;0.000061;0.999939
17.484993;-0.062500;-0.160156;9.871094;0.000000;0.000000;0.000000;-2.875000;16.812500;-39.062500;-0.007507;0.003906;0.000061;0.999939
17.504997;-0.062500;-0.160156;9.871094;0.000000;0.000000;0.000000;-2.875000;16.812500;-39.062500;-0.007507;0.003906;0.000061;0.999939
17.535995;-0.062500;-0.160156;9.871094;0.000000;0.000000;0.000000;-3.250000;19.000000;-39.812500;-0.007507;0.003906;0.000061;0.999939
17.542999;-0.062500;-0.160156;9.871094;0.000000;0.000000;0.000000;-3.250000;19.000000;-39.812500;-0.007507;0.003906;0.000061;0.999939
17.572998;-0.101563;-0.121094;9.871094;0.000000;0.000000;0.000000;-3.250000;19.000000;-39.812500;-0.007507;0.003906;0.000061;0.999939
17.584999;-0.101563;-0.121094;9.871094;0.000000;0.000000;0.000000;-2.500000;19.312500;-39.437500;-0.007507;0.003906;0.000061;0.999939
17.604996;-0.062500;-0.121094;9.871094;0.000000;0.000000;0.000000;-2.500000;19.312500;-39.437500;-0.007507;0.003906;0.000061;0.999939
17.644997;-0.062500;-0.160156;9.871094;0.000000;0.000000;0.000000;-2.500000;18.250000;-40.625000;-0.007507;0.003845;0.000000;0.999939
17.654999;-0.101563;-0.160156;9.871094;0.000000;0.000000;0.000000;-2.500000;18.250000;-40.625000;-0.007507;0.003845;0.000000;0.999939
17.679993;-0.101563;-0.160156;9.871094;0.000000;0.000000;0.000000;-2.500000;18.250000;-40.625000;-0.007507;0.003845;0.000061;0.999939
17.697998;-0.101563;-0.121094;9.871094;0.000000;0.000000;0.000000;-2.187500;19.000000;-40.250000;-0.007507;0.003845;0.000061;0.999939
17.723000;-0.062500;-0.160156;9.871094;0.000000;0.000000;0.000000;-2.187500;19.000000;-40.250000;-0.007507;0.003845;0.000061;0.999939
17.734993;-0.062500;-0.160156;9.871094;0.000000;0.000000;0.000000;-1.812500;19.000000;-40.250000;-0.007507;0.003845;0.000061;0.999939
17.754997;-0.062500;-0.160156;9.871094;0.000000;0.000000;0.000000;-1.812500;19.000000;-40.250000;-0.007507;0.003845;0.000061;0.999939
17.785995;-0.062500;-0.121094;9.871094;0.000000;0.000000;0.000000;-3.250000;19.000000;-40.250000;-0.007507;0.003845;0.000061;0.999939
17.801994;-0.062500;-0.121094;9.871094;0.000000;0.000000;0.000000;-3.250000;19.000000;-40.250000;-0.007507;0.003845;0.000061;0.999939
17.834999;-0.062500;-0.121094;9.871094;0.000000;0.000000;0.000000;-2.500000;18.625000;-39.812500;-0.007507;0.003845;0.000000;0.999939
17.844994;-0.062500;-0.121094;9.871094;0.000000;0.000000;0.000000;-2.500000;18.625000;-39.812500;-0.007507;0.003845;0.000000;0.999939
17.872993;-0.101563;-0.160156;9.871094;0.000000;0.000000;0.000000;-2.500000;18.625000;-39.812500;-0.007507;0.003845;0.000061;0.999939
17.884995;-0.101563;-0.160156;9.871094;0.000000;0.000000;0.000000;-3.250000;19.000000;-39.812500;-0.007507;0.003845;0.000061;0.999939
17.904999;-0.062500;-0.160156;9.871094;0.000000;0.000000;0.000000;-3.250000;19.000000;-39.812500;-0.007507;0.003845;0.000061;0.999939
17.927994;-0.062500;-0.160156;9.871094;0.000000;0.000000;0.000000;-3.250000;19.000000;-39.812500;-0.007507;0.003845;0.000061;0.999939
17.947998;-0.062500;-0.160156;9.871094;0.000000;0.000000;0.000000;-2.875000;18.625000;-39.000000;-0.007507;0.003845;0.000061;0.999939
17.985992;-0.101563;-0.160156;9.871094;0.000000;0.000000;0.000000;-4.000000;19.687500;-40.250000;-0.007507;0.003784;0.000061;0.999939
17.992996;-0.101563;-0.160156;9.871094;0.000000;0.000000;0.000000;-4.000000;19.687500;-40.250000;-0.007507;0.003784;0.000061;0.999939
18.022995;-0.062500;-0.160156;9.871094;0.000000;0.000000;0.000000;-4.000000;19.687500;-40.250000;-0.007507;0.003784;0.000061;0.999939
18.037994;-0.062500;-0.160156;9.871094;0.000000;0.000000;0.000000;-3.250000;18.625000;-39.875000;-0.007507;0.003784;0.000061;0.999939
18.051994;-0.062500;-0.160156;9.871094;0.000000;0.000000;0.000000;-3.250000;18.625000;-39.875000;-0.007507;0.003784;0.000061;0.999939
18.084999;-0.062500;-0.160156;9.871094;0.000000;0.000000;0.000000;-2.500000;18.625000;-40.625000;-0.007507;0.003784;0.000061;0.999939
18.096992;-0.062500;-0.160156;9.871094;0.000000;0.000000;0.000000;-2.500000;18.625000;-40.625000;-0.007507;0.003784;0.000061;0.999939
18.117996;-0.062500;-0.160156;9.871094;0.000000;0.000000;0.000000;-2.500000;18.625000;-40.625000;-0.007568;0.003784;0.000061;0.999939
18.147995;-0.101563;-0.160156;9.871094;0.000000;0.000000;0.000000;-2.500000;19.000000;-39.812500;-0.007568;0.003784;0.000061;0.999939
18.171997;-0.062500;-0.160156;9.871094;0.000000;0.000000;0.000000;-2.500000;19.000000;-39.812500;-0.007568;0.003784;0.000061;0.999939
18.189995;-0.101563;-0.160156;9.871094;0.000000;0.000000;0.000000;-3.250000;18.250000;-40.250000;-0.007568;0.003784;0.000061;0.999939
18.202995;-0.101563;-0.160156;9.871094;0.000000;0.000000;0.000000;-3.250000;18.250000;-40.250000;-0.007568;0.003784;0.000061;0.999939
18.229996;-0.101563;-0.160156;9.871094;0.000000;0.000000;0.000000;-3.250000;18.250000;-40.250000;-0.007568;0.003784;0.000061;0.999939
18.244995;-0.101563;-0.160156;9.871094;0.000000;0.000000;0.000000;-2.875000;19.000000;-39.062500;-0.007568;0.003784;0.000061;0.999939
18.269997;-0.062500;-0.121094;9.871094;0.000000;0.000000;0.000000;-2.875000;19.000000;-39.062500;-0.007629;0.003784;0.000061;0.999939
18.289993;-0.062500;-0.160156;9.871094;0.000000;0.000000;0.000000;-2.500000;17.500000;-39.437500;-0.007629;0.003784;0.000061;0.999939
18.320000;-0.062500;-0.160156;9.871094;0.000000;0.000000;0.000000;-2.500000;17.500000;-39.437500;-0.007629;0.003784;0.000061;0.999939
18.334999;-0.062500;-0.160156;9.871094;0.000000;0.000000;0.000000;-2.875000;19.000000;-40.250000;-0.007629;0.003784;0.000061;0.999939
18.354996;-0.062500;-0.160156;9.871094;0.000000;0.000000;0.000000;-2.875000;19.000000;-40.250000;-0.007629;0.003784;0.000061;0.999939
18.379997;-0.062500;-0.160156;9.871094;0.000000;0.000000;0.000000;-2.875000;19.000000;-40.250000;-0.007629;0.003784;0.000061;0.999939
18.396996;-0.062500;-0.160156;9.871094;0.000000;0.000000;0.000000;-1.812500;19.687500;-40.625000;-0.007629;0.003784;0.000061;0.999939
18.419998;-0.062500;-0.160156;9.871094;0.000000;0.000000;0.000000;-1.812500;19.687500;-40.625000;-0.007690;0.003784;0.000061;0.999939
18.439995;-0.101563;-0.160156;9.871094;0.000000;0.000000;0.000000;-2.187500;18.625000;-39.062500;-0.007690;0.003784;0.000061;0.999939
18.452995;-0.101563;-0.160156;9.871094;0.000000;0.000000;0.000000;-2.187500;18.625000;-39.062500;-0.007690;0.003784;0.000061;0.999939
18.495995;-0.062500;-0.121094;9.871094;0.000000;0.000000;0.000000;-2.875000;18.250000;-39.437500;-0.007690;0.003784;0.000061;0.999939
18.504997;-0.062500;-0.160156;9.871094;0.000000;0.000000;0.000000;-2.875000;18.250000;-39.437500;-0.007690;0.003784;0.000061;0.999939
18.527992;-0.062500;-0.160156;9.871094;0.000000;0.000000;0.000000;-2.875000;18.250000;-39.437500;-0.007690;0.003784;0.000061;0.999939
18.549995;-0.101563;-0.160156;9.871094;0.000000;0.000000;0.000000;-2.187500;19.000000;-40.625000;-0.007690;0.003784;0.000061;0.999939
18.570000;-0.101563;-0.160156;9.871094;0.000000;0.000000;0.000000;-2.187500;19.000000;-40.625000;-0.007690;0.003723;0.000061;0.999939
18.586998;-0.101563;-0.160156;9.871094;0.000000;0.000000;0.000000;-3.625000;17.875000;-39.875000;-0.007690;0.003723;0.000061;0.999939
18.604996;-0.062500;-0.160156;9.871094;0.000000;0.000000;0.000000;-3.625000;17.875000;-39.875000;-0.007690;0.003723;0.000061;0.999939
18.634995;-0.062500;-0.121094;9.871094;0.000000;0.000000;0.000000;-3.250000;20.062500;-40.250000;-0.007690;0.003723;0.000061;0.999939
18.651993;-0.062500;-0.121094;9.871094;0.000000;0.000000;0.000000;-3.250000;20.062500;-40.250000;-0.007690;0.003723;0.000061;0.999939
18.688995;-0.062500;-0.121094;9.871094;0.000000;0.000000;0.000000;-3.250000;17.125000;-39.437500;-0.007751;0.003784;0.000061;0.999939
18.692993;-0.101563;-0.160156;9.871094;0.000000;0.000000;0.000000;-3.250000;17.125000;-39.437500;-0.007751;0.003784;0.000061;0.999939
18.723000;-0.062500;-0.160156;9.871094;0.000000;0.000000;0.000000;-3.250000;17.125000;-39.437500;-0.007751;0.003784;0.000061;0.999939
18.734993;-0.062500;-0.160156;9.871094;0.000000;0.000000;0.000000;-2.187500;19.000000;-39.062500;-0.007751;0.003784;0.000061;0.999939
18.754997;-0.062500;-0.160156;9.871094;0.000000;0.000000;0.000000;-2.187500;19.000000;-39.062500;-0.007751;0.003784;0.000061;0.999939
18.785995;-0.101563;-0.160156;9.871094;0.000000;0.000000;0.000000;-2.500000;18.625000;-39.875000;-0.007751;0.003784;0.000000;0.999939
18.792999;-0.101563;-0.160156;9.871094;0.000000;0.000000;0.000000;-2.500000;18.625000;-39.875000;-0.007751;0.003784;0.000000;0.999939
18.834999;-0.062500;-0.121094;9.871094;0.000000;0.000000;0.000000;-3.625000;19.312500;-40.250000;-0.007751;0.003784;0.000000;0.999939
18.841995;-0.062500;-0.121094;9.871094;0.000000;0.000000;0.000000;-3.625000;19.312500;-40.250000;-0.007751;0.003784;0.000000;0.999939
18.872993;-0.062500;-0.160156;9.871094;0.000000;0.000000;0.000000;-3.625000;19.312500;-40.250000;-0.007751;0.003784;0.000000;0.999939
18.886993;-0.062500;-0.160156;9.871094;0.000000;0.000000;0.000000;-3.250000;17.500000;-38.625000;-0.007751;0.003784;0.000000;0.999939
18.901993;-0.062500;-0.160156;9.871094;0.000000;0.000000;0.000000;-3.250000;17.500000;-38.625000;-0.007751;0.003784;0.000000;0.999939
18.935997;-0.101563;-0.160156;9.871094;0.000000;0.000000;0.000000;-3.250000;19.687500;-39.437500;-0.007751;0.003784;0.000000;0.999939
18.945000;-0.101563;-0.121094;9.871094;0.000000;0.000000;0.000000;-3.250000;19.687500;-39.437500;-0.007751;0.003784;0.000000;0.999939
18.973000;-0.101563;-0.121094;9.871094;0.000000;0.000000;0.000000;-3.250000;19.687500;-39.437500;-0.007813;0.003845;0.000000;0.999939
18.994995;-0.062500;-0.160156;9.871094;0.000000;0.000000;0.000000;-2.875000;19.000000;-38.625000;-0.007813;0.003845;0.000000;0.999939
19.022995;-0.062500;-0.160156;9.835938;0.000000;0.000000;0.000000;-2.875000;19.000000;-38.625000;-0.007813;0.003845;0.000000;0.999939
19.037994;-0.062500;-0.121094;9.871094;0.000000;0.000000;0.000000;-3.250000;19.312500;-39.875000;-0.007813;0.003845;0.000000;0.999939
19.051994;-0.062500;-0.121094;9.871094;0.000000;0.000000;0.000000;-3.250000;19.312500;-39.875000;-0.007813;0.003845;0.000000;0.999939
19.084999;-0.101563;-0.160156;9.871094;0.000000;0.000000;0.000000;-2.500000;19.000000;-39.062500;-0.007813;0.003845;0.000000;0.999939
19.091995;-0.101563;-0.160156;9.871094;0.000000;0.000000;0.000000;-2.500000;19.000000;-39.062500;-0.007813;0.003845;0.000000;0.999939
19.122993;-0.062500;-0.160156;9.871094;0.000000;0.000000;0.000000;-2.500000;19.000000;-39.062500;-0.007813;0.003845;0.000000;0.999939
19.136993;-0.062500;-0.160156;9.871094;0.000000;0.000000;0.000000;-4.000000;18.625000;-40.625000;-0.007813;0.003845;0.000000;0.999939
19.172997;-0.062500;-0.160156;9.871094;0.000000;0.000000;0.000000;-4.000000;18.625000;-40.625000;-0.007813;0.003845;0.000000;0.999939
19.184998;-0.062500;-0.160156;9.871094;0.000000;0.000000;0.000000;-2.500000;20.062500;-39.875000;-0.007813;0.003845;0.000000;0.999939
19.207993;-0.101563;-0.160156;9.871094;0.000000;0.000000;0.000000;-2.500000;20.062500;-39.875000;-0.007813;0.003845;0.000000;0.999939
19.229996;-0.062500;-0.121094;9.871094;0.000000;0.000000;0.000000;-2.500000;20.062500;-39.875000;-0.007813;0.003845;0.000000;0.999939
19.244995;-0.062500;-0.121094;9.871094;0.000000;0.000000;0.000000;-2.500000;19.312500;-39.812500;-0.007813;0.003845;0.000000;0.999939
19.272995;-0.101563;-0.160156;9.871094;0.000000;0.000000;0.000000;-2.500000;19.312500;-39.812500;-0.007813;0.003845;0.000000;0.999939
19.282997;-0.101563;-0.160156;9.871094;0.000000;0.000000;0.000000;-2.500000;19.312500;-39.812500;-0.007813;0.003845;0.000000;0.999939
19.309998;-0.101563;-0.121094;9.871094;0.000000;0.000000;0.000000;-2.500000;19.312500;-40.250000;-0.007813;0.003845;0.000000;0.999939
19.342995;-0.062500;-0.121094;9.871094;0.000000;0.000000;0.000000;-2.875000;20.062500;-39.875000;-0.007813;0.003845;0.000000;0.999939
19.356995;-0.062500;-0.160156;9.871094;0.000000;0.000000;0.000000;-2.875000;20.062500;-39.875000;-0.007813;0.003845;0.000000;0.999939
19.379997;-0.062500;-0.160156;9.871094;0.000000;0.000000;0.000000;-2.875000;20.062500;-39.875000;-0.007813;0.003845;0.000000;0.999939
19.396996;-0.062500;-0.160156;9.871094;0.000000;0.000000;0.000000;-2.875000;17.875000;-39.437500;-0.007813;0.003845;0.000000;0.999939
19.419998;-0.101563;-0.160156;9.871094;0.000000;0.000000;0.000000;-2.875000;17.875000;-39.437500;-0.007813;0.003906;0.000000;0.999939
19.431999;-0.101563;-0.160156;9.871094;0.000000;0.000000;0.000000;-2.875000;17.875000;-39.437500;-0.007813;0.003906;0.000000;0.999939
19.459999;-0.062500;-0.160156;9.871094;0.000000;0.000000;0.000000;-3.250000;18.250000;-38.625000;-0.007813;0.003906;0.000000;0.999939
19.479996;-0.062500;-0.160156;9.871094;0.000000;0.000000;0.000000;-3.250000;18.250000;-38.625000;-0.007813;0.003906;0.000000;0.999939
19.509995;-0.062500;-0.160156;9.871094;0.000000;0.000000;0.000000;-2.500000;17.500000;-39.875000;-0.007813;0.003906;0.000000;0.999939
19.527992;-0.062500;-0.160156;9.871094;0.000000;0.000000;0.000000;-2.500000;17.500000;-39.875000;-0.007813;0.003906;0.000000;0.999939
19.549995;-0.062500;-0.121094;9.871094;0.000000;0.000000;0.000000;-2.187500;18.625000;-39.875000;-0.007813;0.003906;0.000000;0.999939
19.561996;-0.062500;-0.121094;9.871094;0.000000;0.000000;0.000000;-2.187500;18.625000;-39.875000;-0.007813;0.003906;0.000000;0.999939
19.594994;-0.062500;-0.160156;9.871094;0.000000;0.000000;0.000000;-2.500000;19.687500;-40.250000;-0.007813;0.003906;0.000000;0.999939
19.604996;-0.062500;-0.160156;9.871094;0.000000;0.000000;0.000000;-2.500000;19.687500;-40.250000;-0.007813;0.003906;0.000000;0.999939
19.631996;-0.062500;-0.160156;9.871094;0.000000;0.000000;0.000000;-2.500000;19.687500;-40.250000;-0.007813;0.003845;0.000000;0.999939
19.644997;-0.101563;-0.160156;9.871094;0.000000;0.000000;0.000000;-2.875000;18.625000;-39.062500;-0.007813;0.003845;0.000000;0.999939
19.679993;-0.062500;-0.160156;9.871094;0.000000;0.000000;0.000000;-2.875000;18.625000;-39.062500;-0.007813;0.003845;0.000000;0.999939
19.699997;-0.062500;-0.121094;9.871094;0.000000;0.000000;0.000000;-2.875000;19.687500;-39.812500;-0.007813;0.003845;0.000000;0.999939
19.711998;-0.062500;-0.121094;9.871094;0.000000;0.000000;0.000000;-2.875000;19.687500;-39.812500;-0.007813;0.003845;0.000000;0.999939
19.745995;-0.101563;-0.160156;9.871094;0.000000;0.000000;0.000000;-3.625000;19.000000;-40.250000;-0.007813;0.003845;0.000000;0.999939
19.751999;-0.101563;-0.160156;9.871094;0.000000;0.000000;0.000000;-3.625000;19.000000;-40.250000;-0.007813;0.003845;0.000000;0.999939
19.782997;-0.101563;-0.160156;9.871094;0.000000;0.000000;0.000000;-3.625000;19.000000;-40.250000;-0.007813;0.003845;0.000000;0.999939
19.796997;-0.062500;-0.160156;9.871094;0.000000;0.000000;0.000000;-2.500000;19.000000;-39.062500;-0.007813;0.003845;0.000000;0.999939
19.811996;-0.062500;-0.160156;9.871094;0.000000;0.000000;0.000000;-2.500000;19.000000;-39.062500;-0.007813;0.003845;0.000000;0.999939
19.857994;-0.062500;-0.160156;9.871094;0.000000;0.000000;0.000000;-2.500000;19.687500;-40.625000;-0.007813;0.003845;0.000000;0.999939
19.862999;-0.062500;-0.160156;9.871094;0.000000;0.000000;0.000000;-2.500000;19.687500;-40.625000;-0.007813;0.003845;0.000000;0.999939
19.894997;-0.101563;-0.160156;9.871094;0.000000;0.000000;0.000000;-3.625000;20.062500;-39.875000;-0.007813;0.003845;0.000000;0.999939
19.901993;-0.101563;-0.160156;9.871094;0.000000;0.000000;0.000000;-3.625000;20.062500;-39.875000;-0.007813;0.003845;0.000000;0.999939
19.932999;-0.062500;-0.121094;9.871094;0.000000;0.000000;0.000000;-3.625000;20.062500;-39.875000;-0.007813;0.003845;0.000000;0.999939
19.947998;-0.101563;-0.160156;9.871094;0.000000;0.000000;0.000000;-3.250000;19.312500;-39.437500;-0.007813;0.003845;0.000000;0.999939
19.961998;-0.101563;-0.160156;9.871094;0.000000;0.000000;0.000000;-3.250000;19.312500;-39.437500;-0.007813;0.003845;0.000000;0.999939
19.995995;-0.062500;-0.121094;9.871094;0.000000;0.000000;0.000000;-1.812500;19.000000;-39.875000;-0.007874;0.003845;0.000000;0.999939
20.022995;-0.062500;-0.160156;9.871094;0.000000;0.000000;0.000000;-1.812500;19.000000;-39.875000;-0.007874;0.003845;0.000000;0.999939
20.032997;-0.062500;-0.160156;9.871094;0.000000;0.000000;0.000000;-1.812500;19.000000;-39.875000;-0.007874;0.003845;0.000000;0.999939
20.056999;-0.101563;-0.160156;9.871094;0.000000;0.000000;0.000000;-2.875000;18.250000;-41.062500;-0.007874;0.003845;0.000000;0.999939
20.082993;-0.062500;-0.160156;9.871094;0.000000;0.000000;0.000000;-2.875000;18.250000;-41.062500;-0.007874;0.003845;0.000000;0.999939
20.094994;-0.062500;-0.160156;9.871094;0.000000;0.000000;0.000000;-2.500000;19.000000;-39.875000;-0.007874;0.003845;0.000000;0.999939
20.122993;-0.101563;-0.160156;9.871094;0.000000;0.000000;0.000000;-2.500000;19.000000;-39.875000;-0.007874;0.003845;0.000000;0.999939
20.136993;-0.101563;-0.121094;9.871094;0.000000;0.000000;0.000000;-2.187500;19.312500;-40.687500;-0.007874;0.003845;0.000000;0.999939
20.151993;-0.101563;-0.121094;9.871094;0.000000;0.000000;0.000000;-2.187500;19.312500;-40.687500;-0.007874;0.003845;0.000000;0.999939
20.195999;-0.101563;-0.160156;9.871094;0.000000;0.000000;0.000000;-3.250000;19.000000;-39.437500;-0.007874;0.003845;0.000000;0.999939
20.204994;-0.101563;-0.160156;9.871094;0.000000;0.000000;0.000000;-3.250000;19.000000;-39.437500;-0.007874;0.003845;0.000000;0.999939
20.232994;-0.062500;-0.160156;9.871094;0.000000;0.000000;0.000000;-3.250000;19.000000;-39.437500;-0.007874;0.003906;0.000000;0.999939
20.244995;-0.062500;-0.160156;9.871094;0.000000;0.000000;0.000000;-3.625000;18.625000;-39.875000;-0.007874;0.003906;0.000000;0.999939
20.272995;-0.062500;-0.160156;9.871094;0.000000;0.000000;0.000000;-3.625000;18.625000;-39.875000;-0.007874;0.003906;0.000000;0.999939
20.282997;-0.062500;-0.160156;9.871094;0.000000;0.000000;0.000000;-3.625000;18.625000;-39.875000;-0.007874;0.003906;0.000000;0.999939
20.309998;-0.062500;-0.160156;9.871094;0.000000;0.000000;0.000000;-2.875000;18.625000;-39.437500;-0.007874;0.003906;0.000000;0.999939
20.330994;-0.101563;-0.160156;9.871094;0.000000;0.000000;0.000000;-2.875000;18.625000;-39.437500;-0.007874;0.003906;0.000000;0.999939
20.359993;-0.062500;-0.121094;9.871094;0.000000;0.000000;0.000000;-3.250000;19.000000;-40.625000;-0.007874;0.003906;0.000000;0.999939
20.376999;-0.062500;-0.121094;9.871094;0.000000;0.000000;0.000000;-3.250000;19.000000;-40.625000;-0.007874;0.003967;0.000000;0.999939
20.397995;-0.062500;-0.160156;9.871094;0.000000;0.000000;0.000000;-2.500000;17.875000;-40.250000;-0.007874;0.003967;0.000000;0.999939
20.412994;-0.062500;-0.160156;9.871094;0.000000;0.000000;0.000000;-2.500000;17.875000;-40.250000;-0.007874;0.003967;0.000000;0.999939
20.442993;-0.101563;-0.160156;9.871094;0.000000;0.000000;0.000000;-2.500000;19.687500;-39.437500;-0.007874;0.003967;0.000000;0.999939
20.457993;-0.101563;-0.160156;9.871094;0.000000;0.000000;0.000000;-2.500000;19.687500;-39.437500;-0.007874;0.003967;0.000000;0.999939
20.479996;-0.101563;-0.160156;9.871094;0.000000;0.000000;0.000000;-2.500000;19.687500;-39.437500;-0.007874;0.003967;0.000000;0.999939
20.497993;-0.101563;-0.160156;9.871094;0.000000;0.000000;0.000000;-3.250000;17.500000;-39.437500;-0.007874;0.003967;0.000000;0.999939
20.530998;-0.062500;-0.160156;9.835938;0.000000;0.000000;0.000000;-3.250000;17.500000;-39.437500;-0.007874;0.003967;0.000000;0.999939
20.549995;-0.062500;-0.160156;9.871094;0.000000;0.000000;0.000000;-2.500000;19.000000;-41.062500;-0.007874;0.003967;0.000000;0.999939
20.561996;-0.062500;-0.160156;9.871094;0.000000;0.000000;0.000000;-2.500000;19.000000;-41.062500;-0.007874;0.003967;0.000000;0.999939
20.592995;-0.062500;-0.160156;9.871094;0.000000;0.000000;0.000000;-2.500000;18.250000;-39.062500;-0.007874;0.004028;0.000000;0.999939
20.604996;-0.062500;-0.121094;9.871094;0.000000;0.000000;0.000000;-2.500000;18.250000;-39.062500;-0.007874;0.004028;0.000000;0.999939
20.626999;-0.062500;-0.121094;9.871094;0.000000;0.000000;0.000000;-2.500000;18.250000;-39.062500;-0.007874;0.004028;0.000000;0.999939
20.649994;-0.062500;-0.160156;9.871094;0.000000;0.000000;0.000000;-3.625000;18.625000;-40.250000;-0.007874;0.004028;0.000000;0.999939
20.662994;-0.062500;-0.160156;9.871094;0.000000;0.000000;0.000000;-3.625000;18.625000;-40.250000;-0.007874;0.004028;0.000000;0.999939
20.709000;-0.062500;-0.121094;9.871094;0.000000;0.000000;0.000000;-3.250000;18.625000;-40.250000;-0.007874;0.004028;0.000000;0.999939
20.711998;-0.062500;-0.121094;9.871094;0.000000;0.000000;0.000000;-3.250000;18.625000;-40.250000;-0.007874;0.004028;0.000000;0.999939
20.745995;-0.062500;-0.160156;9.871094;0.000000;0.000000;0.000000;-2.187500;19.000000;-38.625000;-0.007874;0.004028;0.000000;0.999939
20.751999;-0.062500;-0.160156;9.871094;0.000000;0.000000;0.000000;-2.187500;19.000000;-38.625000;-0.007874;0.004028;0.000000;0.999939
20.779999;-0.101563;-0.160156;9.871094;0.000000;0.000000;0.000000;-2.187500;19.000000;-38.625000;-0.007874;0.004028;0.000000;0.999939
20.799995;-0.101563;-0.160156;9.871094;0.000000;0.000000;0.000000;-2.500000;19.312500;-39.437500;-0.007874;0.004028;0.000000;0.999939
20.811996;-0.101563;-0.160156;9.871094;0.000000;0.000000;0.000000;-2.500000;19.312500;-39.437500;-0.007874;0.004028;0.000000;0.999939
20.844994;-0.062500;-0.121094;9.835938;0.000000;0.000000;0.000000;-3.250000;18.625000;-39.437500;-0.007874;0.004028;0.000000;0.999939
20.864998;-0.062500;-0.160156;9.835938;0.000000;0.000000;0.000000;-3.250000;18.625000;-39.437500;-0.007874;0.004028;0.000000;0.999939
20.894997;-0.062500;-0.160156;9.871094;0.000000;0.000000;0.000000;-2.875000;19.000000;-39.437500;-0.007874;0.003967;0.000000;0.999939
20.901993;-0.062500;-0.160156;9.871094;0.000000;0.000000;0.000000;-2.875000;19.000000;-39.437500;-0.007874;0.003967;0.000000;0.999939
20.931999;-0.062500;-0.160156;9.871094;0.000000;0.000000;0.000000;-2.875000;19.000000;-39.437500;-0.007874;0.003967;0.000000;0.999939
20.945000;-0.062500;-0.160156;9.871094;0.000000;0.000000;0.000000;-3.250000;20.062500;-40.250000;-0.007874;0.003967;0.000000;0.999939
20.964996;-0.101563;-0.160156;9.871094;0.000000;0.000000;0.000000;-3.250000;20.062500;-40.250000;-0.007874;0.003967;0.000000;0.999939
20.995995;-0.062500;-0.160156;9.871094;0.000000;0.000000;0.000000;-2.500000;18.625000;-40.687500;-0.007874;0.003967;0.000000;0.999939
21.001999;-0.062500;-0.160156;9.871094;0.000000;0.000000;0.000000;-2.500000;18.625000;-40.687500;-0.007874;0.003967;0.000000;0.999939
21.047997;-0.101563;-0.121094;9.871094;0.000000;0.000000;0.000000;-2.500000;19.687500;-39.062500;-0.007874;0.003967;0.000000;0.999939
21.051994;-0.101563;-0.121094;9.871094;0.000000;0.000000;0.000000;-2.500000;19.687500;-39.062500;-0.007874;0.003967;0.000000;0.999939
21.082993;-0.062500;-0.160156;9.871094;0.000000;0.000000;0.000000;-2.500000;19.687500;-39.062500;-0.007874;0.003967;0.000000;0.999939
21.094994;-0.062500;-0.160156;9.871094;0.000000;0.000000;0.000000;-2.500000;19.312500;-39.437500;-0.007874;0.003967;0.000000;0.999939
21.114998;-0.101563;-0.160156;9.835938;0.000000;0.000000;0.000000;-2.500000;19.312500;-39.437500;-0.007874;0.003967;0.000000;0.999939
21.144997;-0.101563;-0.160156;9.871094;0.000000;0.000000;0.000000;-2.875000;19.312500;-39.437500;-0.007874;0.003967;0.000000;0.999939
21.151993;-0.101563;-0.160156;9.871094;0.000000;0.000000;0.000000;-2.875000;19.312500;-39.437500;-0.007874;0.003967;0.000000;0.999939
21.182999;-0.062500;-0.160156;9.871094;0.000000;0.000000;0.000000;-2.875000;19.312500;-39.437500;-0.007874;0.003967;0.000000;0.999939
21.207993;-0.101563;-0.160156;9.871094;0.000000;0.000000;0.000000;-2.875000;18.250000;-39.875000;-0.007874;0.003967;0.000000;0.999939
21.232994;-0.101563;-0.160156;9.871094;0.000000;0.000000;0.000000;-2.875000;18.250000;-39.875000;-0.007874;0.003967;0.000000;0.999939
21.244995;-0.101563;-0.160156;9.871094;0.000000;0.000000;0.000000;-2.187500;18.250000;-39.437500;-0.007874;0.003967;0.000000;0.999939
21.264999;-0.101563;-0.121094;9.871094;0.000000;0.000000;0.000000;-2.187500;18.250000;-39.437500;-0.007874;0.003967;0.000000;0.999939
21.294998;-0.062500;-0.160156;9.871094;0.000000;0.000000;0.000000;-2.187500;19.687500;-38.625000;-0.007874;0.004028;0.000000;0.999939
21.301994;-0.062500;-0.160156;9.871094;0.000000;0.000000;0.000000;-2.187500;19.687500;-38.625000;-0.007874;0.004028;0.000000;0.999939
21.332993;-0.062500;-0.160156;9.871094;0.000000;0.000000;0.000000;-2.187500;19.687500;-38.625000;-0.007935;0.004028;0.000000;0.999939
21.344994;-0.062500;-0.160156;9.871094;0.000000;0.000000;0.000000;-3.250000;19.000000;-39.875000;-0.007935;0.004028;0.000000;0.999939
21.381996;-0.062500;-0.121094;9.871094;0.000000;0.000000;0.000000;-3.250000;19.000000;-39.875000;-0.007935;0.004028;0.000000;0.999939
21.397995;-0.062500;-0.121094;9.871094;0.000000;0.000000;0.000000;-2.187500;19.000000;-39.437500;-0.007935;0.004028;0.000000;0.999939
21.412994;-0.062500;-0.121094;9.871094;0.000000;0.000000;0.000000;-2.187500;19.000000;-39.437500;-0.007935;0.004028;0.000000;0.999939
21.445999;-0.062500;-0.121094;9.835938;0.000000;0.000000;0.000000;-2.187500;19.312500;-40.250000;-0.007935;0.004089;0.000000;0.999939
21.457993;-0.062500;-0.121094;9.871094;0.000000;0.000000;0.000000;-2.187500;19.312500;-40.250000;-0.007935;0.004089;0.000000;0.999939
21.477997;-0.062500;-0.121094;9.871094;0.000000;0.000000;0.000000;-2.187500;19.312500;-40.250000;-0.007874;0.004089;0.000000;0.999939
21.497993;-0.062500;-0.121094;9.871094;0.000000;0.000000;0.000000;-2.875000;18.625000;-40.687500;-0.007874;0.004089;0.000000;0.999939
21.522995;-0.062500;-0.121094;9.871094;0.000000;0.000000;0.000000;-2.875000;18.625000;-40.687500;-0.007874;0.004028;0.000000;0.999939
21.546997;-0.062500;-0.160156;9.871094;0.000000;0.000000;0.000000;-2.500000;19.312500;-39.437500;-0.007874;0.004028;0.000000;0.999939
21.564995;-0.062500;-0.160156;9.871094;0.000000;0.000000;0.000000;-2.500000;19.312500;-39.437500;-0.007874;0.004028;0.000000;0.999939
21.592995;-0.062500;-0.160156;9.835938;0.000000;0.000000;0.000000;-2.875000;19.312500;-39.875000;-0.007874;0.004028;0.000000;0.999939
21.601997;-0.062500;-0.160156;9.835938;0.000000;0.000000;0.000000;-2.875000;19.312500;-39.875000;-0.007874;0.004028;0.000000;0.999939
21.631996;-0.062500;-0.160156;9.871094;0.000000;0.000000;0.000000;-2.875000;19.312500;-39.875000;-0.007813;0.004028;0.000000;0.999939
21.647995;-0.062500;-0.160156;9.871094;0.000000;0.000000;0.000000;-2.875000;19.000000;-41.062500;-0.007813;0.004028;0.000000;0.999939
21.664993;-0.062500;-0.160156;9.871094;0.000000;0.000000;0.000000;-2.875000;19.000000;-41.062500;-0.007813;0.004028;0.000000;0.999939
21.692993;-0.101563;-0.121094;9.871094;0.000000;0.000000;0.000000;-2.500000;18.250000;-40.250000;-0.007813;0.004028;0.000000;0.999939
21.723000;-0.062500;-0.121094;9.835938;0.000000;0.000000;0.000000;-2.500000;18.250000;-40.250000;-0.007813;0.003967;0.000000;0.999939
21.734993;-0.062500;-0.121094;9.835938;0.000000;0.000000;0.000000;-2.500000;18.250000;-40.250000;-0.007813;0.003967;0.000000;0.999939
21.756996;-0.101563;-0.121094;9.871094;0.000000;0.000000;0.000000;-3.625000;19.000000;-41.437500;-0.007813;0.003967;0.000000;0.999939
21.780998;-0.062500;-0.160156;9.871094;0.000000;0.000000;0.000000;-3.625000;19.000000;-41.437500;-0.007751;0.003967;0.000000;0.999939
21.794998;-0.062500;-0.160156;9.871094;0.000000;0.000000;0.000000;-2.187500;19.687500;-40.687500;-0.007751;0.003967;0.000000;0.999939
21.822998;-0.062500;-0.160156;9.871094;0.000000;0.000000;0.000000;-2.187500;19.687500;-40.687500;-0.007751;0.003906;0.000000;0.999939
21.834999;-0.101563;-0.160156;9.871094;0.000000;0.000000;0.000000;-2.187500;19.687500;-40.687500;-0.007751;0.003906;0.000000;0.999939
21.856995;-0.101563;-0.160156;9.871094;0.000000;0.000000;0.000000;-2.875000;19.312500;-41.062500;-0.007751;0.003906;0.000000;0.999939
21.897995;-0.062500;-0.160156;9.871094;0.000000;0.000000;0.000000;-3.250000;18.625000;-39.437500;-0.007751;0.003906;0.000000;0.999939
21.902992;-0.062500;-0.160156;9.871094;0.000000;0.000000;0.000000;-3.250000;18.625000;-39.437500;-0.007751;0.003906;0.000000;0.999939
21.929993;-0.062500;-0.160156;9.871094;0.000000;0.000000;0.000000;-3.250000;18.625000;-39.437500;-0.007751;0.003906;0.000000;0.999939
21.947998;-0.062500;-0.160156;9.871094;0.000000;0.000000;0.000000;-2.500000;19.000000;-39.437500;-0.007751;0.003906;0.000000;0.999939
21.964996;-0.062500;-0.121094;9.871094;0.000000;0.000000;0.000000;-2.500000;19.000000;-39.437500;-0.007751;0.003906;0.000000;0.999939
21.995995;-0.101563;-0.121094;9.871094;0.000000;0.000000;0.000000;-3.625000;19.000000;-40.250000;-0.007751;0.003845;0.000000;0.999939
22.001999;-0.101563;-0.121094;9.871094;0.000000;0.000000;0.000000;-3.625000;19.000000;-40.250000;-0.007751;0.003845;0.000000;0.999939
22.029999;-0.062500;-0.121094;9.871094;0.000000;0.000000;0.000000;-3.625000;19.000000;-40.250000;-0.007751;0.003845;0.000000;0.999939
22.059998;-0.062500;-0.121094;9.871094;0.000000;0.000000;0.000000;-3.250000;19.312500;-40.250000;-0.007751;0.003845;0.000000;0.999939
22.077995;-0.062500;-0.121094;9.871094;0.000000;0.000000;0.000000;-3.250000;19.312500;-40.250000;-0.007690;0.003845;0.000000;0.999939
22.099998;-0.062500;-0.121094;9.871094;0.000000;0.000000;0.000000;-2.187500;18.625000;-39.062500;-0.007690;0.003845;0.000000;0.999939
22.114998;-0.101563;-0.160156;9.871094;0.000000;0.000000;0.000000;-2.187500;18.625000;-39.062500;-0.007690;0.003845;0.000000;0.999939
22.144997;-0.101563;-0.160156;9.871094;0.000000;0.000000;0.000000;-3.250000;19.687500;-39.437500;-0.007690;0.003784;0.000000;0.999939
22.151993;-0.101563;-0.160156;9.871094;0.000000;0.000000;0.000000;-3.250000;19.687500;-39.437500;-0.007690;0.003784;0.000000;0.999939
22.182999;-0.062500;-0.160156;9.871094;0.000000;0.000000;0.000000;-3.250000;19.687500;-39.437500;-0.007690;0.003784;0.000000;0.999939
22.195000;-0.062500;-0.160156;9.871094;0.000000;0.000000;0.000000;-3.250000;19.312500;-40.250000;-0.007690;0.003784;0.000000;0.999939
22.232994;-0.101563;-0.160156;9.871094;0.000000;0.000000;0.000000;-3.250000;19.312500;-40.250000;-0.007629;0.003784;0.000000;0.999939
22.247993;-0.062500;-0.121094;9.871094;0.000000;0.000000;0.000000;-2.875000;17.875000;-39.875000;-0.007629;0.003784;0.000000;0.999939
22.261993;-0.062500;-0.121094;9.871094;0.000000;0.000000;0.000000;-2.875000;17.875000;-39.875000;-0.007629;0.003784;0.000000;0.999939
22.294998;-0.101563;-0.121094;9.871094;0.000000;0.000000;0.000000;-2.875000;19.687500;-39.875000;-0.007629;0.003784;0.000000;0.999939
22.304993;-0.062500;-0.121094;9.871094;0.000000;0.000000;0.000000;-2.875000;19.687500;-39.875000;-0.007629;0.003784;0.000000;0.999939
22.332993;-0.062500;-0.160156;9.871094;0.000000;0.000000;0.000000;-2.875000;19.687500;-39.875000;-0.007629;0.003784;0.000000;0.999939
22.344994;-0.062500;-0.160156;9.871094;0.000000;0.000000;0.000000;-3.250000;19.687500;-39.437500;-0.007629;0.003784;0.000000;0.999939
22.364998;-0.101563;-0.121094;9.871094;0.000000;0.000000;0.000000;-3.250000;19.687500;-39.437500;-0.007629;0.003784;0.000000;0.999939
22.405998;-0.062500;-0.160156;9.871094;0.000000;0.000000;0.000000;-2.875000;19.312500;-40.250000;-0.007629;0.003845;0.000000;0.999939
22.412994;-0.062500;-0.160156;9.871094;0.000000;0.000000;0.000000;-2.875000;19.312500;-40.250000;-0.007629;0.003845;0.000000;0.999939
22.445999;-0.062500;-0.160156;9.871094;0.000000;0.000000;0.000000;-2.875000;19.312500;-39.062500;-0.007568;0.003845;0.000000;0.999939
22.452995;-0.062500;-0.160156;9.871094;0.000000;0.000000;0.000000;-2.875000;19.312500;-39.062500;-0.007568;0.003845;0.000000;0.999939
22.482994;-0.062500;-0.121094;9.871094;0.000000;0.000000;0.000000;-2.875000;19.312500;-39.062500;-0.007568;0.003845;0.000000;0.999939
22.497993;-0.062500;-0.121094;9.871094;0.000000;0.000000;0.000000;-3.625000;17.500000;-39.875000;-0.007568;0.003845;0.000000;0.999939
22.511993;-0.062500;-0.121094;9.871094;0.000000;0.000000;0.000000;-3.625000;17.500000;-39.875000;-0.007568;0.003845;0.000000;0.999939
22.544998;-0.062500;-0.160156;9.871094;0.000000;0.000000;0.000000;-2.187500;19.312500;-39.875000;-0.007507;0.003845;0.000000;0.999939
22.564995;-0.062500;-0.160156;9.871094;0.000000;0.000000;0.000000;-2.187500;19.312500;-39.875000;-0.007507;0.003845;0.000000;0.999939
22.594994;-0.101563;-0.160156;9.871094;0.000000;0.000000;0.000000;-3.250000;19.000000;-39.875000;-0.007507;0.003845;0.000000;0.999939
22.601997;-0.101563;-0.160156;9.871094;0.000000;0.000000;0.000000;-3.250000;19.000000;-39.875000;-0.007507;0.003845;0.000000;0.999939
22.631996;-0.062500;-0.160156;9.871094;0.000000;0.000000;0.000000;-3.250000;19.000000;-39.875000;-0.007507;0.003845;0.000000;0.999939
22.647995;-0.062500;-0.160156;9.871094;0.000000;0.000000;0.000000;-3.250000;19.000000;-39.875000;-0.007507;0.003845;0.000000;0.999939
22.662994;-0.062500;-0.160156;9.871094;0.000000;0.000000;0.000000;-3.250000;19.000000;-39.875000;-0.007507;0.003845;0.000000;0.999939
22.692993;-0.101563;-0.160156;9.871094;0.000000;0.000000;0.000000;-3.625000;19.687500;-41.062500;-0.007507;0.003784;0.000000;0.999939
22.702995;-0.101563;-0.160156;9.871094;0.000000;0.000000;0.000000;-3.625000;19.687500;-41.062500;-0.007507;0.003784;0.000000;0.999939
22.748993;-0.062500;-0.160156;9.871094;0.000000;0.000000;0.000000;-3.625000;18.625000;-41.062500;-0.007507;0.003784;0.000000;0.999939
22.751999;-0.062500;-0.160156;9.871094;0.000000;0.000000;0.000000;-3.625000;18.625000;-41.062500;-0.007507;0.003784;0.000000;0.999939
22.782997;-0.062500;-0.160156;9.871094;0.000000;0.000000;0.000000;-3.625000;18.625000;-41.062500;-0.007507;0.003784;0.000000;0.999939
22.794998;-0.062500;-0.160156;9.871094;0.000000;0.000000;0.000000;-2.500000;19.000000;-39.437500;-0.007507;0.003784;0.000000;0.999939
22.816994;-0.062500;-0.160156;9.871094;0.000000;0.000000;0.000000;-2.500000;19.000000;-39.437500;-0.007507;0.003784;0.000000;0.999939
22.842995;-0.062500;-0.121094;9.871094;0.000000;0.000000;0.000000;-2.500000;18.625000;-39.437500;-0.007507;0.003784;0.000000;0.999939
22.854996;-0.062500;-0.121094;9.871094;0.000000;0.000000;0.000000;-2.500000;18.625000;-39.437500;-0.007507;0.003784;0.000000;0.999939
22.879997;-0.101563;-0.160156;9.871094;0.000000;0.000000;0.000000;-2.500000;18.625000;-39.437500;-0.007507;0.003723;0.000000;0.999939
22.909996;-0.062500;-0.121094;9.871094;0.000000;0.000000;0.000000;-2.500000;19.312500;-39.437500;-0.007507;0.003723;0.000000;0.999939
22.929993;-0.062500;-0.160156;9.871094;0.000000;0.000000;0.000000;-2.500000;19.312500;-39.437500;-0.007507;0.003723;0.000000;0.999939
22.945000;-0.062500;-0.160156;9.871094;0.000000;0.000000;0.000000;-2.187500;18.625000;-39.875000;-0.007507;0.003723;0.000000;0.999939
22.964996;-0.062500;-0.121094;9.835938;0.000000;0.000000;0.000000;-2.187500;18.625000;-39.875000;-0.007507;0.003723;0.000000;0.999939
22.987999;-0.062500;-0.121094;9.835938;0.000000;0.000000;0.000000;-2.187500;18.625000;-39.875000;-0.007507;0.003723;0.000000;0.999939
23.009995;-0.101563;-0.160156;9.871094;0.000000;0.000000;0.000000;-2.875000;18.625000;-39.500000;-0.007507;0.003723;0.000000;0.999939
23.029999;-0.062500;-0.121094;9.871094;0.000000;0.000000;0.000000;-2.875000;18.625000;-39.500000;-0.007507;0.003723;0.000000;0.999939
23.046997;-0.062500;-0.121094;9.871094;0.000000;0.000000;0.000000;-2.875000;18.250000;-40.250000;-0.007507;0.003723;0.000000;0.999939
23.080994;-0.101563;-0.160156;9.871094;0.000000;0.000000;0.000000;-2.875000;18.250000;-40.250000;-0.007507;0.003723;0.000000;0.999939
23.099998;-0.062500;-0.160156;9.871094;0.000000;0.000000;0.000000;-2.500000;18.250000;-39.437500;-0.007507;0.003723;0.000000;0.999939
23.112999;-0.062500;-0.160156;9.871094;0.000000;0.000000;0.000000;-2.500000;18.250000;-39.437500;-0.007507;0.003723;0.000000;0.999939
23.144997;-0.101563;-0.121094;9.871094;0.000000;0.000000;0.000000;-2.875000;19.000000;-39.500000;-0.007507;0.003723;0.000061;0.999939
23.154999;-0.101563;-0.160156;9.871094;0.000000;0.000000;0.000000;-2.875000;19.000000;-39.500000;-0.007507;0.003723;0.000061;0.999939
23.179993;-0.101563;-0.160156;9.871094;0.000000;0.000000;0.000000;-2.875000;19.000000;-39.500000;-0.007507;0.003723;0.000061;0.999939
23.195000;-0.062500;-0.160156;9.871094;0.000000;0.000000;0.000000;-1.437500;18.625000;-38.625000;-0.007507;0.003723;0.000061;0.999939
23.214996;-0.101563;-0.121094;9.871094;0.000000;0.000000;0.000000;-1.437500;18.625000;-38.625000;-0.007507;0.003723;0.000061;0.999939
23.254997;-0.101563;-0.121094;9.871094;0.000000;0.000000;0.000000;-2.500000;18.625000;-39.875000;-0.007507;0.003723;0.000061;0.999939
23.261993;-0.101563;-0.121094;9.871094;0.000000;0.000000;0.000000;-2.500000;18.625000;-39.875000;-0.007507;0.003723;0.000061;0.999939
23.294998;-0.101563;-0.160156;9.871094;0.000000;0.000000;0.000000;-3.250000;19.687500;-39.437500;-0.007507;0.003723;0.000061;0.999939
23.301994;-0.101563;-0.160156;9.871094;0.000000;0.000000;0.000000;-3.250000;19.687500;-39.437500;-0.007507;0.003723;0.000061;0.999939
23.330994;-0.062500;-0.160156;9.871094;0.000000;0.000000;0.000000;-3.250000;19.687500;-39.437500;-0.007507;0.003723;0.000061;0.999939
23.349998;-0.101563;-0.160156;9.871094;0.000000;0.000000;0.000000;-3.625000;19.687500;-39.875000;-0.007507;0.003723;0.000061;0.999939
23.362999;-0.101563;-0.160156;9.871094;0.000000;0.000000;0.000000;-3.625000;19.687500;-39.875000;-0.007507;0.003723;0.000061;0.999939
23.394997;-0.062500;-0.160156;9.871094;0.000000;0.000000;0.000000;-3.250000;17.500000;-39.875000;-0.007507;0.003784;0.000061;0.999939
23.414993;-0.062500;-0.160156;9.871094;0.000000;0.000000;0.000000;-3.250000;17.500000;-39.875000;-0.007507;0.003784;0.000061;0.999939
23.445999;-0.062500;-0.160156;9.871094;0.000000;0.000000;0.000000;-2.875000;19.000000;-39.875000;-0.007507;0.003845;0.000061;0.999939
23.452995;-0.062500;-0.160156;9.871094;0.000000;0.000000;0.000000;-2.875000;19.000000;-39.875000;-0.007507;0.003845;0.000061;0.999939
23.482994;-0.101563;-0.121094;9.871094;0.000000;0.000000;0.000000;-2.875000;19.000000;-39.875000;-0.007507;0.003845;0.000061;0.999939
23.497993;-0.101563;-0.160156;9.871094;0.000000;0.000000;0.000000;-2.187500;19.000000;-41.062500;-0.007507;0.003845;0.000061;0.999939
23.511993;-0.101563;-0.160156;9.871094;0.000000;0.000000;0.000000;-2.187500;19.000000;-41.062500;-0.007507;0.003845;0.000061;0.999939
23.544998;-0.062500;-0.160156;9.871094;0.000000;0.000000;0.000000;-2.875000;19.000000;-39.500000;-0.007568;0.003845;0.000000;0.999939
23.551994;-0.062500;-0.160156;9.871094;0.000000;0.000000;0.000000;-2.875000;19.000000;-39.500000;-0.007568;0.003845;0.000000;0.999939
23.598000;-0.062500;-0.160156;9.871094;0.000000;0.000000;0.000000;-2.875000;19.000000;-41.500000;-0.007568;0.003845;0.000061;0.999939
23.601997;-0.062500;-0.160156;9.871094;0.000000;0.000000;0.000000;-2.875000;19.000000;-41.500000;-0.007568;0.003845;0.000061;0.999939
23.631996;-0.101563;-0.160156;9.871094;0.000000;0.000000;0.000000;-2.875000;19.000000;-41.500000;-0.007568;0.003845;0.000000;0.999939
23.644997;-0.101563;-0.160156;9.871094;0.000000;0.000000;0.000000;-2.500000;18.250000;-39.875000;-0.007568;0.003845;0.000000;0.999939
23.664993;-0.062500;-0.121094;9.871094;0.000000;0.000000;0.000000;-2.500000;18.250000;-39.875000;-0.007568;0.003845;0.000000;0.999939
23.695999;-0.062500;-0.121094;9.871094;0.000000;0.000000;0.000000;-4.000000;18.625000;-40.687500;-0.007629;0.003845;0.000000;0.999939
23.702995;-0.062500;-0.121094;9.871094;0.000000;0.000000;0.000000;-4.000000;18.625000;-40.687500;-0.007629;0.003845;0.000000;0.999939
23.732994;-0.101563;-0.160156;9.871094;0.000000;0.000000;0.000000;-4.000000;18.625000;-40.687500;-0.007629;0.003845;0.000000;0.999939
23.756996;-0.101563;-0.160156;9.871094;0.000000;0.000000;0.000000;-2.187500;18.250000;-39.062500;-0.007629;0.003845;0.000000;0.999939
23.782997;-0.062500;-0.160156;9.871094;0.000000;0.000000;0.000000;-2.187500;18.250000;-39.062500;-0.007629;0.003906;0.000000;0.999939
23.794998;-0.062500;-0.160156;9.871094;0.000000;0.000000;0.000000;-3.250000;18.250000;-40.250000;-0.007629;0.003906;0.000000;0.999939
23.816994;-0.101563;-0.121094;9.871094;0.000000;0.000000;0.000000;-3.250000;18.250000;-40.250000;-0.007629;0.003906;0.000000;0.999939
23.842995;-0.062500;-0.121094;9.871094;0.000000;0.000000;0.000000;-3.250000;18.625000;-39.437500;-0.007629;0.003906;0.000000;0.999939
23.851997;-0.062500;-0.121094;9.871094;0.000000;0.000000;0.000000;-3.250000;18.625000;-39.437500;-0.007629;0.003906;0.000000;0.999939
23.881996;-0.062500;-0.160156;9.871094;0.000000;0.000000;0.000000;-3.250000;18.625000;-39.437500;-0.007629;0.003906;0.000000;0.999939
23.894997;-0.062500;-0.160156;9.871094;0.000000;0.000000;0.000000;-2.875000;17.875000;-38.687500;-0.007629;0.003906;0.000000;0.999939
23.935997;-0.101563;-0.160156;9.871094;0.000000;0.000000;0.000000;-2.875000;17.875000;-38.687500;-0.007629;0.003906;0.000000;0.999939
23.945000;-0.101563;-0.160156;9.871094;0.000000;0.000000;0.000000;-1.812500;19.687500;-40.687500;-0.007629;0.003906;0.000000;0.999939
23.961998;-0.101563;-0.160156;9.871094;0.000000;0.000000;0.000000;-1.812500;19.687500;-40.687500;-0.007629;0.003906;0.000000;0.999939
23.998993;-0.062500;-0.121094;9.871094;0.000000;0.000000;0.000000;-3.625000;20.062500;-39.500000;-0.007629;0.003906;0.000000;0.999939
24.001999;-0.062500;-0.121094;9.871094;0.000000;0.000000;0.000000;-3.625000;20.062500;-39.500000;-0.007629;0.003906;0.000000;0.999939
24.030998;-0.101563;-0.160156;9.871094;0.000000;0.000000;0.000000;-3.625000;20.062500;-39.500000;-0.007568;0.003906;0.000000;0.999939
24.044998;-0.101563;-0.160156;9.871094;0.000000;0.000000;0.000000;-3.625000;19.000000;-39.437500;-0.007568;0.003906;0.000000;0.999939
24.066994;-0.062500;-0.160156;9.871094;0.000000;0.000000;0.000000;-3.625000;19.000000;-39.437500;-0.007568;0.003906;0.000000;0.999939
24.104996;-0.101563;-0.160156;9.871094;0.000000;0.000000;0.000000;-2.500000;18.625000;-39.875000;-0.007568;0.003906;0.000000;0.999939
24.112999;-0.101563;-0.160156;9.871094;0.000000;0.000000;0.000000;-2.500000;18.625000;-39.875000;-0.007568;0.003906;0.000000;0.999939
24.142998;-0.101563;-0.121094;9.871094;0.000000;0.000000;0.000000;-2.500000;18.625000;-39.875000;-0.007568;0.003906;0.000000;0.999939
24.157997;-0.062500;-0.121094;9.871094;0.000000;0.000000;0.000000;-3.250000;19.687500;-40.250000;-0.007568;0.003906;0.000000;0.999939
24.176994;-0.062500;-0.121094;9.871094;0.000000;0.000000;0.000000;-3.250000;19.687500;-40.250000;-0.007568;0.003906;0.000000;0.999939
24.199997;-0.062500;-0.160156;9.871094;0.000000;0.000000;0.000000;-3.625000;19.687500;-38.687500;-0.007568;0.003906;0.000000;0.999939
24.211998;-0.062500;-0.160156;9.871094;0.000000;0.000000;0.000000;-3.625000;19.687500;-38.687500;-0.007568;0.003906;0.000000;0.999939
24.240997;-0.101563;-0.160156;9.871094;0.000000;0.000000;0.000000;-3.625000;19.687500;-38.687500;-0.007568;0.003906;0.000000;0.999939
24.269997;-0.062500;-0.160156;9.835938;0.000000;0.000000;0.000000;-3.250000;19.687500;-39.875000;-0.007568;0.003906;0.000000;0.999939
24.290993;-0.062500;-0.160156;9.871094;0.000000;0.000000;0.000000;-3.250000;19.687500;-39.875000;-0.007568;0.003906;0.000000;0.999939
24.306999;-0.062500;-0.160156;9.871094;0.000000;0.000000;0.000000;-3.625000;19.687500;-39.437500;-0.007568;0.003906;0.000000;0.999939
24.330994;-0.062500;-0.160156;9.871094;0.000000;0.000000;0.000000;-3.625000;19.687500;-39.437500;-0.007568;0.003906;0.000000;0.999939
24.349998;-0.062500;-0.160156;9.871094;0.000000;0.000000;0.000000;-2.187500;18.625000;-40.687500;-0.007568;0.003906;0.000000;0.999939
24.362999;-0.062500;-0.160156;9.871094;0.000000;0.000000;0.000000;-2.187500;18.625000;-40.687500;-0.007568;0.003906;0.000000;0.999939
24.389999;-0.101563;-0.160156;9.835938;0.000000;0.000000;0.000000;-2.187500;18.625000;-40.687500;-0.007568;0.003906;0.000000;0.999939
24.410995;-0.062500;-0.121094;9.871094;0.000000;0.000000;0.000000;-2.875000;18.250000;-39.875000;-0.007568;0.003906;0.000000;0.999939
24.442993;-0.062500;-0.160156;9.871094;0.000000;0.000000;0.000000;-2.875000;18.250000;-39.875000;-0.007568;0.003906;0.000000;0.999939
24.455994;-0.062500;-0.160156;9.871094;0.000000;0.000000;0.000000;-2.500000;19.312500;-39.062500;-0.007568;0.003906;0.000000;0.999939
24.479996;-0.062500;-0.121094;9.871094;0.000000;0.000000;0.000000;-2.500000;19.312500;-39.062500;-0.007629;0.003906;0.000000;0.999939
24.500999;-0.062500;-0.160156;9.871094;0.000000;0.000000;0.000000;-2.187500;18.250000;-39.062500;-0.007629;0.003906;0.000000;0.999939
24.511993;-0.062500;-0.160156;9.871094;0.000000;0.000000;0.000000;-2.187500;18.250000;-39.062500;-0.007629;0.003906;0.000000;0.999939
24.544998;-0.062500;-0.160156;9.871094;0.000000;0.000000;0.000000;-3.250000;18.625000;-39.875000;-0.007629;0.003906;0.000000;0.999939
24.551994;-0.062500;-0.160156;9.871094;0.000000;0.000000;0.000000;-3.250000;18.625000;-39.875000;-0.007629;0.003906;0.000000;0.999939
24.580994;-0.101563;-0.160156;9.871094;0.000000;0.000000;0.000000;-3.250000;18.625000;-39.875000;-0.007629;0.003906;0.000000;0.999939
24.609993;-0.062500;-0.160156;9.871094;0.000000;0.000000;0.000000;-2.875000;19.312500;-39.062500;-0.007629;0.003906;0.000000;0.999939
24.631996;-0.062500;-0.121094;9.871094;0.000000;0.000000;0.000000;-2.875000;19.312500;-39.062500;-0.007690;0.003845;0.000000;0.999939
24.644997;-0.062500;-0.121094;9.871094;0.000000;0.000000;0.000000;-3.250000;20.062500;-39.875000;-0.007690;0.003845;0.000000;0.999939
24.664993;-0.062500;-0.160156;9.871094;0.000000;0.000000;0.000000;-3.250000;20.062500;-39.875000;-0.007690;0.003845;0.000000;0.999939
24.695999;-0.062500;-0.160156;9.871094;0.000000;0.000000;0.000000;-2.875000;19.000000;-38.250000;-0.007690;0.003845;0.000000;0.999939
24.702995;-0.062500;-0.160156;9.871094;0.000000;0.000000;0.000000;-2.875000;19.000000;-38.250000;-0.007690;0.003845;0.000000;0.999939
24.732994;-0.101563;-0.160156;9.871094;0.000000;0.000000;0.000000;-2.875000;19.000000;-38.250000;-0.007690;0.003845;0.000000;0.999939
24.744995;-0.101563;-0.160156;9.871094;0.000000;0.000000;0.000000;-2.500000;19.000000;-40.687500;-0.007690;0.003845;0.000000;0.999939
24.785995;-0.062500;-0.121094;9.871094;0.000000;0.000000;0.000000;-2.500000;19.000000;-40.687500;-0.007690;0.003784;0.000000;0.999939
24.794998;-0.062500;-0.121094;9.871094;0.000000;0.000000;0.000000;-2.187500;18.625000;-39.875000;-0.007690;0.003784;0.000000;0.999939
24.811996;-0.062500;-0.121094;9.871094;0.000000;0.000000;0.000000;-2.187500;18.625000;-39.875000;-0.007690;0.003784;0.000000;0.999939
24.848000;-0.101563;-0.160156;9.871094;0.000000;0.000000;0.000000;-3.250000;19.000000;-39.875000;-0.007751;0.003784;0.000000;0.999939
24.851997;-0.101563;-0.160156;9.871094;0.000000;0.000000;0.000000;-3.250000;19.000000;-39.875000;-0.007751;0.003784;0.000000;0.999939
24.882996;-0.062500;-0.121094;9.871094;0.000000;0.000000;0.000000;-3.250000;19.000000;-39.875000;-0.007690;0.003784;0.000000;0.999939
24.894997;-0.062500;-0.121094;9.871094;0.000000;0.000000;0.000000;-3.250000;18.250000;-40.250000;-0.007690;0.003784;0.000000;0.999939
24.914993;-0.062500;-0.160156;9.871094;0.000000;0.000000;0.000000;-3.250000;18.250000;-40.250000;-0.007690;0.003784;0.000000;0.999939
24.955994;-0.062500;-0.121094;9.871094;0.000000;0.000000;0.000000;-3.625000;19.000000;-41.062500;-0.007690;0.003784;0.000000;0.999939
24.961998;-0.062500;-0.121094;9.871094;0.000000;0.000000;0.000000;-3.625000;19.000000;-41.062500;-0.007690;0.003784;0.000000;0.999939
24.995995;-0.062500;-0.121094;9.871094;0.000000;0.000000;0.000000;-3.250000;18.625000;-40.250000;-0.007690;0.003784;0.000000;0.999939
25.004997;-0.101563;-0.160156;9.871094;0.000000;0.000000;0.000000;-3.250000;18.625000;-40.250000;-0.007690;0.003784;0.000000;0.999939
25.029999;-0.101563;-0.160156;9.871094;0.000000;0.000000;0.000000;-3.250000;18.625000;-40.250000;-0.007690;0.003784;0.000000;0.999939
